row,rt,stimulus,key_press,trial_type,trial_index,time_elapsed,internal_node_id,responses,num_pitch_level,correct,subjectID,correct_response
1,24418,"This experiment is being conducted at Vassar College. It consists of a pitch discrimination task and an emotion identification task. The study takes approximately 8-10 minutes to complete.  Participation poses minimal risk, meaning the risk is no greater ",32,html-keyboard-response,0,24428,0.0-0.0,NULL,NULL,NULL,5a79e8161904200001558ea5,NULL
2,14583,"<p>Thank you for agreeing to participate in this experiment.</p><p>In this study you will be complete a pitch discrimination task then you will be presented with voice sound clips and asked to identify the emotion associated with the voice.</p><p>Before w",32,html-keyboard-response,1,39518,0.0-1.0,NULL,NULL,NULL,5a79e8161904200001558ea5,NULL
3,12366,NULL,NULL,survey-text,2,52390,0.0-2.0,"{"Q0":"0"}",NULL,NULL,5a79e8161904200001558ea5,NULL
4,NULL,jsPsych-master/K.mp3,NULL,audio-keyboard-response,3,59866,0.0-3.0-0.0,NULL,NULL,NULL,5a79e8161904200001558ea5,NULL
5,3869,jsPsych-master/K.mp3,75,audio-keyboard-response,4,64255,0.0-3.1-0.1,NULL,NULL,NULL,5a79e8161904200001558ea5,NULL
6,10986,"<p>In this task you will hear two tones played in quick succession. If the second tone is higher than the first please press the up arrow key on your keyboard. If the second tone is lower than the first press the down arrow on your keyboard.</p><p>Press t",32,html-keyboard-response,5,75750,0.0-4.0,NULL,NULL,NULL,5a79e8161904200001558ea5,NULL
7,NULL,jsPsych-master/Pitch/1.mp3,NULL,audio-keyboard-response,6,76835,0.0-5.0-0.0,NULL,NULL,NULL,5a79e8161904200001558ea5,NULL
8,NULL,"<p style='font-size:48px;'>+</p>",NULL,html-keyboard-response,7,77052,0.0-5.0-1.0,NULL,NULL,NULL,5a79e8161904200001558ea5,NULL
9,NULL,jsPsych-master/Pitch/1b.mp3,NULL,audio-keyboard-response,8,77635,0.0-5.0-2.0,NULL,NULL,NULL,5a79e8161904200001558ea5,NULL
10,3880,"Press the up arrow if the second tone is higher and the down arrow if the second tone is lower.",38,html-keyboard-response,9,81517,0.0-5.0-3.0,NULL,1,1,5a79e8161904200001558ea5,NULL
11,NULL,jsPsych-master/Pitch/2b.mp3,NULL,audio-keyboard-response,10,82605,0.0-5.1-0.1,NULL,NULL,NULL,5a79e8161904200001558ea5,NULL
12,NULL,"<p style='font-size:48px;'>+</p>",NULL,html-keyboard-response,11,82810,0.0-5.1-1.1,NULL,NULL,NULL,5a79e8161904200001558ea5,NULL
13,NULL,jsPsych-master/Pitch/2.mp3,NULL,audio-keyboard-response,12,83384,0.0-5.1-2.1,NULL,NULL,NULL,5a79e8161904200001558ea5,NULL
14,893,"Press the up arrow if the second tone is higher and the down arrow if the second tone is lower.",40,html-keyboard-response,13,84280,0.0-5.1-3.1,NULL,2,1,5a79e8161904200001558ea5,NULL
15,NULL,jsPsych-master/Pitch/3.mp3,NULL,audio-keyboard-response,14,85375,0.0-5.2-0.2,NULL,NULL,NULL,5a79e8161904200001558ea5,NULL
16,NULL,"<p style='font-size:48px;'>+</p>",NULL,html-keyboard-response,15,85586,0.0-5.2-1.2,NULL,NULL,NULL,5a79e8161904200001558ea5,NULL
17,NULL,jsPsych-master/Pitch/3b.mp3,NULL,audio-keyboard-response,16,86164,0.0-5.2-2.2,NULL,NULL,NULL,5a79e8161904200001558ea5,NULL
18,2076,"Press the up arrow if the second tone is higher and the down arrow if the second tone is lower.",38,html-keyboard-response,17,88243,0.0-5.2-3.2,NULL,3,1,5a79e8161904200001558ea5,NULL
19,NULL,jsPsych-master/Pitch/4b.mp3,NULL,audio-keyboard-response,18,89325,0.0-5.3-0.3,NULL,NULL,NULL,5a79e8161904200001558ea5,NULL
20,NULL,"<p style='font-size:48px;'>+</p>",NULL,html-keyboard-response,19,89527,0.0-5.3-1.3,NULL,NULL,NULL,5a79e8161904200001558ea5,NULL
21,NULL,jsPsych-master/Pitch/4.mp3,NULL,audio-keyboard-response,20,90104,0.0-5.3-2.3,NULL,NULL,NULL,5a79e8161904200001558ea5,NULL
22,384,"Press the up arrow if the second tone is higher and the down arrow if the second tone is lower.",40,html-keyboard-response,21,90491,0.0-5.3-3.3,NULL,4,1,5a79e8161904200001558ea5,NULL
23,NULL,jsPsych-master/Pitch/5.mp3,NULL,audio-keyboard-response,22,91585,0.0-5.4-0.4,NULL,NULL,NULL,5a79e8161904200001558ea5,NULL
24,NULL,"<p style='font-size:48px;'>+</p>",NULL,html-keyboard-response,23,91789,0.0-5.4-1.4,NULL,NULL,NULL,5a79e8161904200001558ea5,NULL
25,NULL,jsPsych-master/Pitch/5b.mp3,NULL,audio-keyboard-response,24,92366,0.0-5.4-2.4,NULL,NULL,NULL,5a79e8161904200001558ea5,NULL
26,368,"Press the up arrow if the second tone is higher and the down arrow if the second tone is lower.",38,html-keyboard-response,25,92735,0.0-5.4-3.4,NULL,5,1,5a79e8161904200001558ea5,NULL
27,NULL,jsPsych-master/Pitch/6b.mp3,NULL,audio-keyboard-response,26,93815,0.0-5.5-0.5,NULL,NULL,NULL,5a79e8161904200001558ea5,NULL
28,NULL,"<p style='font-size:48px;'>+</p>",NULL,html-keyboard-response,27,94019,0.0-5.5-1.5,NULL,NULL,NULL,5a79e8161904200001558ea5,NULL
29,NULL,jsPsych-master/Pitch/6.mp3,NULL,audio-keyboard-response,28,94595,0.0-5.5-2.5,NULL,NULL,NULL,5a79e8161904200001558ea5,NULL
30,1201,"Press the up arrow if the second tone is higher and the down arrow if the second tone is lower.",40,html-keyboard-response,29,95798,0.0-5.5-3.5,NULL,6,1,5a79e8161904200001558ea5,NULL
31,NULL,jsPsych-master/Pitch/7b.mp3,NULL,audio-keyboard-response,30,96884,0.0-5.6-0.6,NULL,NULL,NULL,5a79e8161904200001558ea5,NULL
32,NULL,"<p style='font-size:48px;'>+</p>",NULL,html-keyboard-response,31,97097,0.0-5.6-1.6,NULL,NULL,NULL,5a79e8161904200001558ea5,NULL
33,NULL,jsPsych-master/Pitch/7.mp3,NULL,audio-keyboard-response,32,97676,0.0-5.6-2.6,NULL,NULL,NULL,5a79e8161904200001558ea5,NULL
34,8029,"Press the up arrow if the second tone is higher and the down arrow if the second tone is lower.",40,html-keyboard-response,33,105707,0.0-5.6-3.6,NULL,7,1,5a79e8161904200001558ea5,NULL
35,NULL,jsPsych-master/Pitch/8b.mp3,NULL,audio-keyboard-response,34,106785,0.0-5.7-0.7,NULL,NULL,NULL,5a79e8161904200001558ea5,NULL
36,NULL,"<p style='font-size:48px;'>+</p>",NULL,html-keyboard-response,35,106998,0.0-5.7-1.7,NULL,NULL,NULL,5a79e8161904200001558ea5,NULL
37,NULL,jsPsych-master/Pitch/8.mp3,NULL,audio-keyboard-response,36,107575,0.0-5.7-2.7,NULL,NULL,NULL,5a79e8161904200001558ea5,NULL
38,1724,"Press the up arrow if the second tone is higher and the down arrow if the second tone is lower.",40,html-keyboard-response,37,109301,0.0-5.7-3.7,NULL,8,1,5a79e8161904200001558ea5,NULL
39,NULL,jsPsych-master/Pitch/9.mp3,NULL,audio-keyboard-response,38,110384,0.0-5.8-0.8,NULL,NULL,NULL,5a79e8161904200001558ea5,NULL
40,NULL,"<p style='font-size:48px;'>+</p>",NULL,html-keyboard-response,39,110586,0.0-5.8-1.8,NULL,NULL,NULL,5a79e8161904200001558ea5,NULL
41,NULL,jsPsych-master/Pitch/9b.mp3,NULL,audio-keyboard-response,40,111165,0.0-5.8-2.8,NULL,NULL,NULL,5a79e8161904200001558ea5,NULL
42,413,"Press the up arrow if the second tone is higher and the down arrow if the second tone is lower.",38,html-keyboard-response,41,111580,0.0-5.8-3.8,NULL,9,1,5a79e8161904200001558ea5,NULL
43,NULL,jsPsych-master/Pitch/10b.mp3,NULL,audio-keyboard-response,42,112664,0.0-5.9-0.9,NULL,NULL,NULL,5a79e8161904200001558ea5,NULL
44,NULL,"<p style='font-size:48px;'>+</p>",NULL,html-keyboard-response,43,112866,0.0-5.9-1.9,NULL,NULL,NULL,5a79e8161904200001558ea5,NULL
45,NULL,jsPsych-master/Pitch/10.mp3,NULL,audio-keyboard-response,44,113444,0.0-5.9-2.9,NULL,NULL,NULL,5a79e8161904200001558ea5,NULL
46,1220,"Press the up arrow if the second tone is higher and the down arrow if the second tone is lower.",38,html-keyboard-response,45,114666,0.0-5.9-3.9,NULL,10,,5a79e8161904200001558ea5,NULL
47,NULL,jsPsych-master/Pitch/9b.mp3,NULL,audio-keyboard-response,46,115755,0.0-5.10-0.10,NULL,NULL,NULL,5a79e8161904200001558ea5,NULL
48,NULL,"<p style='font-size:48px;'>+</p>",NULL,html-keyboard-response,47,115969,0.0-5.10-1.10,NULL,NULL,NULL,5a79e8161904200001558ea5,NULL
49,NULL,jsPsych-master/Pitch/9.mp3,NULL,audio-keyboard-response,48,116545,0.0-5.10-2.10,NULL,NULL,NULL,5a79e8161904200001558ea5,NULL
50,1101,"Press the up arrow if the second tone is higher and the down arrow if the second tone is lower.",40,html-keyboard-response,49,117648,0.0-5.10-3.10,NULL,9,1,5a79e8161904200001558ea5,NULL
51,NULL,jsPsych-master/Pitch/10.mp3,NULL,audio-keyboard-response,50,118734,0.0-5.11-0.11,NULL,NULL,NULL,5a79e8161904200001558ea5,NULL
52,NULL,"<p style='font-size:48px;'>+</p>",NULL,html-keyboard-response,51,118947,0.0-5.11-1.11,NULL,NULL,NULL,5a79e8161904200001558ea5,NULL
53,NULL,jsPsych-master/Pitch/10b.mp3,NULL,audio-keyboard-response,52,119523,0.0-5.11-2.11,NULL,NULL,NULL,5a79e8161904200001558ea5,NULL
54,2829,"Press the up arrow if the second tone is higher and the down arrow if the second tone is lower.",40,html-keyboard-response,53,122354,0.0-5.11-3.11,NULL,10,,5a79e8161904200001558ea5,NULL
55,NULL,jsPsych-master/Pitch/9.mp3,NULL,audio-keyboard-response,54,123434,0.0-5.12-0.12,NULL,NULL,NULL,5a79e8161904200001558ea5,NULL
56,NULL,"<p style='font-size:48px;'>+</p>",NULL,html-keyboard-response,55,123649,0.0-5.12-1.12,NULL,NULL,NULL,5a79e8161904200001558ea5,NULL
57,NULL,jsPsych-master/Pitch/9b.mp3,NULL,audio-keyboard-response,56,124225,0.0-5.12-2.12,NULL,NULL,NULL,5a79e8161904200001558ea5,NULL
58,699,"Press the up arrow if the second tone is higher and the down arrow if the second tone is lower.",38,html-keyboard-response,57,124927,0.0-5.12-3.12,NULL,9,1,5a79e8161904200001558ea5,NULL
59,NULL,jsPsych-master/Pitch/10b.mp3,NULL,audio-keyboard-response,58,126015,0.0-5.13-0.13,NULL,NULL,NULL,5a79e8161904200001558ea5,NULL
60,NULL,"<p style='font-size:48px;'>+</p>",NULL,html-keyboard-response,59,126231,0.0-5.13-1.13,NULL,NULL,NULL,5a79e8161904200001558ea5,NULL
61,NULL,jsPsych-master/Pitch/10.mp3,NULL,audio-keyboard-response,60,126803,0.0-5.13-2.13,NULL,NULL,NULL,5a79e8161904200001558ea5,NULL
62,419,"Press the up arrow if the second tone is higher and the down arrow if the second tone is lower.",38,html-keyboard-response,61,127224,0.0-5.13-3.13,NULL,10,,5a79e8161904200001558ea5,NULL
63,NULL,jsPsych-master/Pitch/9.mp3,NULL,audio-keyboard-response,62,128315,0.0-5.14-0.14,NULL,NULL,NULL,5a79e8161904200001558ea5,NULL
64,NULL,"<p style='font-size:48px;'>+</p>",NULL,html-keyboard-response,63,128515,0.0-5.14-1.14,NULL,NULL,NULL,5a79e8161904200001558ea5,NULL
65,NULL,jsPsych-master/Pitch/9b.mp3,NULL,audio-keyboard-response,64,129095,0.0-5.14-2.14,NULL,NULL,NULL,5a79e8161904200001558ea5,NULL
66,2049,"Press the up arrow if the second tone is higher and the down arrow if the second tone is lower.",40,html-keyboard-response,65,131145,0.0-5.14-3.14,NULL,9,,5a79e8161904200001558ea5,NULL
67,NULL,jsPsych-master/Pitch/8b.mp3,NULL,audio-keyboard-response,66,132223,0.0-5.15-0.15,NULL,NULL,NULL,5a79e8161904200001558ea5,NULL
68,NULL,"<p style='font-size:48px;'>+</p>",NULL,html-keyboard-response,67,132437,0.0-5.15-1.15,NULL,NULL,NULL,5a79e8161904200001558ea5,NULL
69,NULL,jsPsych-master/Pitch/8.mp3,NULL,audio-keyboard-response,68,133015,0.0-5.15-2.15,NULL,NULL,NULL,5a79e8161904200001558ea5,NULL
70,567,"Press the up arrow if the second tone is higher and the down arrow if the second tone is lower.",38,html-keyboard-response,69,133596,0.0-5.15-3.15,NULL,8,,5a79e8161904200001558ea5,NULL
71,NULL,jsPsych-master/Pitch/7b.mp3,NULL,audio-keyboard-response,70,134685,0.0-5.16-0.16,NULL,NULL,NULL,5a79e8161904200001558ea5,NULL
72,NULL,"<p style='font-size:48px;'>+</p>",NULL,html-keyboard-response,71,134895,0.0-5.16-1.16,NULL,NULL,NULL,5a79e8161904200001558ea5,NULL
73,NULL,jsPsych-master/Pitch/7.mp3,NULL,audio-keyboard-response,72,135475,0.0-5.16-2.16,NULL,NULL,NULL,5a79e8161904200001558ea5,NULL
74,303,"Press the up arrow if the second tone is higher and the down arrow if the second tone is lower.",40,html-keyboard-response,73,135780,0.0-5.16-3.16,NULL,7,1,5a79e8161904200001558ea5,NULL
75,NULL,jsPsych-master/Pitch/8b.mp3,NULL,audio-keyboard-response,74,136874,0.0-5.17-0.17,NULL,NULL,NULL,5a79e8161904200001558ea5,NULL
76,NULL,"<p style='font-size:48px;'>+</p>",NULL,html-keyboard-response,75,137083,0.0-5.17-1.17,NULL,NULL,NULL,5a79e8161904200001558ea5,NULL
77,NULL,jsPsych-master/Pitch/8.mp3,NULL,audio-keyboard-response,76,137655,0.0-5.17-2.17,NULL,NULL,NULL,5a79e8161904200001558ea5,NULL
78,872,"Press the up arrow if the second tone is higher and the down arrow if the second tone is lower.",40,html-keyboard-response,77,138528,0.0-5.17-3.17,NULL,8,1,5a79e8161904200001558ea5,NULL
79,NULL,jsPsych-master/Pitch/9b.mp3,NULL,audio-keyboard-response,78,139623,0.0-5.18-0.18,NULL,NULL,NULL,5a79e8161904200001558ea5,NULL
80,NULL,"<p style='font-size:48px;'>+</p>",NULL,html-keyboard-response,79,139834,0.0-5.18-1.18,NULL,NULL,NULL,5a79e8161904200001558ea5,NULL
81,NULL,jsPsych-master/Pitch/9.mp3,NULL,audio-keyboard-response,80,140414,0.0-5.18-2.18,NULL,NULL,NULL,5a79e8161904200001558ea5,NULL
82,850,"Press the up arrow if the second tone is higher and the down arrow if the second tone is lower.",38,html-keyboard-response,81,141267,0.0-5.18-3.18,NULL,9,,5a79e8161904200001558ea5,NULL
83,NULL,jsPsych-master/Pitch/8b.mp3,NULL,audio-keyboard-response,82,142354,0.0-5.19-0.19,NULL,NULL,NULL,5a79e8161904200001558ea5,NULL
84,NULL,"<p style='font-size:48px;'>+</p>",NULL,html-keyboard-response,83,142560,0.0-5.19-1.19,NULL,NULL,NULL,5a79e8161904200001558ea5,NULL
85,NULL,jsPsych-master/Pitch/8.mp3,NULL,audio-keyboard-response,84,143135,0.0-5.19-2.19,NULL,NULL,NULL,5a79e8161904200001558ea5,NULL
86,1079,"Press the up arrow if the second tone is higher and the down arrow if the second tone is lower.",38,html-keyboard-response,85,144215,0.0-5.19-3.19,NULL,8,,5a79e8161904200001558ea5,NULL
87,12076,"<p>In each trial of this task you will hear a person speaking meaningless phrases in a foreign language two times in a row.</p><p>After the person is done speaking, select what emotion best identifies the emotion expressed by the spearker from a list of s",32,html-keyboard-response,86,156801,0.0-6.0,NULL,NULL,NULL,5a79e8161904200001558ea5,NULL
88,NULL,jsPsych-master/Emotion_Stimuli/1pA_angry1.mp3,NULL,audio-keyboard-response,87,158664,0.0-7.0-0.0,NULL,NULL,NULL,5a79e8161904200001558ea5,NULL
89,NULL,jsPsych-master/Emotion_Stimuli/2pA_angry2.mp3,NULL,audio-keyboard-response,88,160074,0.0-7.0-1.0,NULL,NULL,NULL,5a79e8161904200001558ea5,NULL
90,17029,NULL,NULL,survey-multi-choice,89,177119,0.0-7.0-2.0,"{"Q0":"Happiness"}",NULL,NULL,5a79e8161904200001558ea5,Anger
91,NULL,jsPsych-master/Emotion_Stimuli/90pA_neutral2.mp3,NULL,audio-keyboard-response,90,178655,0.0-7.0-3.0,NULL,NULL,NULL,5a79e8161904200001558ea5,NULL
92,NULL,jsPsych-master/Emotion_Stimuli/99pA_neutral11.mp3,NULL,audio-keyboard-response,91,180564,0.0-7.0-4.0,NULL,NULL,NULL,5a79e8161904200001558ea5,NULL
93,5974,NULL,NULL,survey-multi-choice,92,186549,0.0-7.0-5.0,"{"Q0":"Sadness"}",NULL,NULL,5a79e8161904200001558ea5,Neutral
94,NULL,jsPsych-master/Emotion_Stimuli/165pB_surprise19.mp3,NULL,audio-keyboard-response,93,187885,0.0-7.0-6.0,NULL,NULL,NULL,5a79e8161904200001558ea5,NULL
95,NULL,jsPsych-master/Emotion_Stimuli/178pB_surprise32.mp3,NULL,audio-keyboard-response,94,189245,0.0-7.0-7.0,NULL,NULL,NULL,5a79e8161904200001558ea5,NULL
96,26733,NULL,NULL,survey-multi-choice,95,215990,0.0-7.0-8.0,"{"Q0":"Happiness"}",NULL,NULL,5a79e8161904200001558ea5,Surprise
97,NULL,jsPsych-master/Emotion_Stimuli/40pA_disgust9.mp3,NULL,audio-keyboard-response,96,217735,0.0-7.0-9.0,NULL,NULL,NULL,5a79e8161904200001558ea5,NULL
98,NULL,jsPsych-master/Emotion_Stimuli/32pA_disgust1.mp3,NULL,audio-keyboard-response,97,219495,0.0-7.0-10.0,NULL,NULL,NULL,5a79e8161904200001558ea5,NULL
99,5662,NULL,NULL,survey-multi-choice,98,225168,0.0-7.0-11.0,"{"Q0":"Disgust"}",NULL,NULL,5a79e8161904200001558ea5,Disgust
100,NULL,jsPsych-master/Emotion_Stimuli/15pA_angry15.mp3,NULL,audio-keyboard-response,99,226555,0.0-7.0-12.0,NULL,NULL,NULL,5a79e8161904200001558ea5,NULL
101,NULL,jsPsych-master/Emotion_Stimuli/8pA_angry8.mp3,NULL,audio-keyboard-response,100,228095,0.0-7.0-13.0,NULL,NULL,NULL,5a79e8161904200001558ea5,NULL
102,3337,NULL,NULL,survey-multi-choice,101,231445,0.0-7.0-14.0,"{"Q0":"Anger"}",NULL,NULL,5a79e8161904200001558ea5,Anger
103,NULL,jsPsych-master/Emotion_Stimuli/77pA_happy6.mp3,NULL,audio-keyboard-response,102,233075,0.0-7.0-15.0,NULL,NULL,NULL,5a79e8161904200001558ea5,NULL
104,NULL,jsPsych-master/Emotion_Stimuli/72pA_happy1.mp3,NULL,audio-keyboard-response,103,234595,0.0-7.0-16.0,NULL,NULL,NULL,5a79e8161904200001558ea5,NULL
105,7204,NULL,NULL,survey-multi-choice,104,241809,0.0-7.0-17.0,"{"Q0":"Surprise"}",NULL,NULL,5a79e8161904200001558ea5,Happiness
106,NULL,jsPsych-master/Emotion_Stimuli/157pA_surprise11.mp3,NULL,audio-keyboard-response,105,243585,0.0-7.0-18.0,NULL,NULL,NULL,5a79e8161904200001558ea5,NULL
107,NULL,jsPsych-master/Emotion_Stimuli/149pA_surprise3.mp3,NULL,audio-keyboard-response,106,245185,0.0-7.0-19.0,NULL,NULL,NULL,5a79e8161904200001558ea5,NULL
108,9540,NULL,NULL,survey-multi-choice,107,254736,0.0-7.0-20.0,"{"Q0":"Neutral"}",NULL,NULL,5a79e8161904200001558ea5,Surprise
109,NULL,jsPsych-master/Emotion_Stimuli/133pB_sad15.mp3,NULL,audio-keyboard-response,108,256154,0.0-7.0-21.0,NULL,NULL,NULL,5a79e8161904200001558ea5,NULL
110,NULL,jsPsych-master/Emotion_Stimuli/145pB_sad27.mp3,NULL,audio-keyboard-response,109,257724,0.0-7.0-22.0,NULL,NULL,NULL,5a79e8161904200001558ea5,NULL
111,4085,NULL,NULL,survey-multi-choice,110,261821,0.0-7.0-23.0,"{"Q0":"Neutral"}",NULL,NULL,5a79e8161904200001558ea5,Sadness
112,NULL,jsPsych-master/Emotion_Stimuli/84pB_happy13.mp3,NULL,audio-keyboard-response,111,263312,0.0-7.0-24.0,NULL,NULL,NULL,5a79e8161904200001558ea5,NULL
113,NULL,jsPsych-master/Emotion_Stimuli/85pB_happy14.mp3,NULL,audio-keyboard-response,112,264593,0.0-7.0-25.0,NULL,NULL,NULL,5a79e8161904200001558ea5,NULL
114,3119,NULL,NULL,survey-multi-choice,113,267720,0.0-7.0-26.0,"{"Q0":"Surprise"}",NULL,NULL,5a79e8161904200001558ea5,Happiness
115,NULL,jsPsych-master/Emotion_Stimuli/68pB_fear14.mp3,NULL,audio-keyboard-response,114,269075,0.0-7.0-27.0,NULL,NULL,NULL,5a79e8161904200001558ea5,NULL
116,NULL,jsPsych-master/Emotion_Stimuli/63pB_fear9.mp3,NULL,audio-keyboard-response,115,270284,0.0-7.0-28.0,NULL,NULL,NULL,5a79e8161904200001558ea5,NULL
117,10124,NULL,NULL,survey-multi-choice,116,280421,0.0-7.0-29.0,"{"Q0":"Sadness"}",NULL,NULL,5a79e8161904200001558ea5,Fear
118,NULL,jsPsych-master/Emotion_Stimuli/134pB_sad16.mp3,NULL,audio-keyboard-response,117,281834,0.0-7.0-30.0,NULL,NULL,NULL,5a79e8161904200001558ea5,NULL
119,NULL,jsPsych-master/Emotion_Stimuli/144pB_sad26.mp3,NULL,audio-keyboard-response,118,283485,0.0-7.0-31.0,NULL,NULL,NULL,5a79e8161904200001558ea5,NULL
120,3134,NULL,NULL,survey-multi-choice,119,286629,0.0-7.0-32.0,"{"Q0":"Sadness"}",NULL,NULL,5a79e8161904200001558ea5,Sadness
121,NULL,jsPsych-master/Emotion_Stimuli/122pA_sad4.mp3,NULL,audio-keyboard-response,120,287986,0.0-7.0-33.0,NULL,NULL,NULL,5a79e8161904200001558ea5,NULL
122,NULL,jsPsych-master/Emotion_Stimuli/120pA_sad2.mp3,NULL,audio-keyboard-response,121,289944,0.0-7.0-34.0,NULL,NULL,NULL,5a79e8161904200001558ea5,NULL
123,6985,NULL,NULL,survey-multi-choice,122,296942,0.0-7.0-35.0,"{"Q0":"Sadness"}",NULL,NULL,5a79e8161904200001558ea5,Sadness
124,NULL,jsPsych-master/Emotion_Stimuli/113pB_neutral25.mp3,NULL,audio-keyboard-response,123,298434,0.0-7.0-36.0,NULL,NULL,NULL,5a79e8161904200001558ea5,NULL
125,NULL,jsPsych-master/Emotion_Stimuli/105pB_neutral17.mp3,NULL,audio-keyboard-response,124,299875,0.0-7.0-37.0,NULL,NULL,NULL,5a79e8161904200001558ea5,NULL
126,3561,NULL,NULL,survey-multi-choice,125,303448,0.0-7.0-38.0,"{"Q0":"Neutral"}",NULL,NULL,5a79e8161904200001558ea5,Neutral
127,NULL,jsPsych-master/Emotion_Stimuli/25pB_angry25.mp3,NULL,audio-keyboard-response,126,304705,0.0-7.0-39.0,NULL,NULL,NULL,5a79e8161904200001558ea5,NULL
128,NULL,jsPsych-master/Emotion_Stimuli/20pB_angry20.mp3,NULL,audio-keyboard-response,127,305835,0.0-7.0-40.0,NULL,NULL,NULL,5a79e8161904200001558ea5,NULL
129,10249,NULL,NULL,survey-multi-choice,128,316097,0.0-7.0-41.0,"{"Q0":"Disgust"}",NULL,NULL,5a79e8161904200001558ea5,Anger
130,NULL,jsPsych-master/Emotion_Stimuli/42pA_disgust11.mp3,NULL,audio-keyboard-response,129,318084,0.0-7.0-42.0,NULL,NULL,NULL,5a79e8161904200001558ea5,NULL
131,NULL,jsPsych-master/Emotion_Stimuli/33pA_disgust2.mp3,NULL,audio-keyboard-response,130,319765,0.0-7.0-43.0,NULL,NULL,NULL,5a79e8161904200001558ea5,NULL
132,3742,NULL,NULL,survey-multi-choice,131,323518,0.0-7.0-44.0,"{"Q0":"Fear"}",NULL,NULL,5a79e8161904200001558ea5,Disgust
133,NULL,jsPsych-master/Emotion_Stimuli/100pA_neutral12.mp3,NULL,audio-keyboard-response,132,325113,0.0-7.0-45.0,NULL,NULL,NULL,5a79e8161904200001558ea5,NULL
134,NULL,jsPsych-master/Emotion_Stimuli/102pA_neutral14.mp3,NULL,audio-keyboard-response,133,327025,0.0-7.0-46.0,NULL,NULL,NULL,5a79e8161904200001558ea5,NULL
135,2906,NULL,NULL,survey-multi-choice,134,329945,0.0-7.0-47.0,"{"Q0":"Neutral"}",NULL,NULL,5a79e8161904200001558ea5,Neutral
136,NULL,jsPsych-master/Emotion_Stimuli/171pB_surprise25.mp3,NULL,audio-keyboard-response,135,331564,0.0-7.0-48.0,NULL,NULL,NULL,5a79e8161904200001558ea5,NULL
137,NULL,jsPsych-master/Emotion_Stimuli/169pB_surprise23.mp3,NULL,audio-keyboard-response,136,332955,0.0-7.0-49.0,NULL,NULL,NULL,5a79e8161904200001558ea5,NULL
138,5910,NULL,NULL,survey-multi-choice,137,338877,0.0-7.0-50.0,"{"Q0":"Neutral"}",NULL,NULL,5a79e8161904200001558ea5,Surprise
139,NULL,jsPsych-master/Emotion_Stimuli/87pB_happy16.mp3,NULL,audio-keyboard-response,138,340445,0.0-7.0-51.0,NULL,NULL,NULL,5a79e8161904200001558ea5,NULL
140,NULL,jsPsych-master/Emotion_Stimuli/86pB_happy15.mp3,NULL,audio-keyboard-response,139,341805,0.0-7.0-52.0,NULL,NULL,NULL,5a79e8161904200001558ea5,NULL
141,5923,NULL,NULL,survey-multi-choice,140,347741,0.0-7.0-53.0,"{"Q0":"Disgust"}",NULL,NULL,5a79e8161904200001558ea5,Happiness
142,NULL,jsPsych-master/Emotion_Stimuli/46pB_disgust15.mp3,NULL,audio-keyboard-response,141,348975,0.0-7.0-54.0,NULL,NULL,NULL,5a79e8161904200001558ea5,NULL
143,NULL,jsPsych-master/Emotion_Stimuli/51pB_disgust20.mp3,NULL,audio-keyboard-response,142,350545,0.0-7.0-55.0,NULL,NULL,NULL,5a79e8161904200001558ea5,NULL
144,2482,NULL,NULL,survey-multi-choice,143,353039,0.0-7.0-56.0,"{"Q0":"Disgust"}",NULL,NULL,5a79e8161904200001558ea5,Disgust
145,NULL,jsPsych-master/Emotion_Stimuli/67pB_fear13.mp3,NULL,audio-keyboard-response,144,354265,0.0-7.0-57.0,NULL,NULL,NULL,5a79e8161904200001558ea5,NULL
146,NULL,jsPsych-master/Emotion_Stimuli/69pB_fear15.mp3,NULL,audio-keyboard-response,145,355684,0.0-7.0-58.0,NULL,NULL,NULL,5a79e8161904200001558ea5,NULL
147,6028,NULL,NULL,survey-multi-choice,146,361718,0.0-7.0-59.0,"{"Q0":"Sadness"}",NULL,NULL,5a79e8161904200001558ea5,Fear
148,29244,"This experiment is being conducted at Vassar College. It consists of a pitch discrimination task and an emotion identification task. The study takes approximately 8-10 minutes to complete.  Participation poses minimal risk, meaning the risk is no greater ",32,html-keyboard-response,0,29247,0.0-0.0,NULL,NULL,NULL,5abbee791667e40001d80694,NULL
149,7657,"<p>Thank you for agreeing to participate in this experiment.</p><p>In this study you will be complete a pitch discrimination task then you will be presented with voice sound clips and asked to identify the emotion associated with the voice.</p><p>Before w",32,html-keyboard-response,1,37407,0.0-1.0,NULL,NULL,NULL,5abbee791667e40001d80694,NULL
150,13982,NULL,NULL,survey-text,2,51891,0.0-2.0,"{"Q0":"5"}",NULL,NULL,5abbee791667e40001d80694,NULL
151,6349,jsPsych-master/K.mp3,75,audio-keyboard-response,3,58883,0.0-3.0-0.0,NULL,NULL,NULL,5abbee791667e40001d80694,NULL
152,8800,"<p>In this task you will hear two tones played in quick succession. If the second tone is higher than the first please press the up arrow key on your keyboard. If the second tone is lower than the first press the down arrow on your keyboard.</p><p>Press t",32,html-keyboard-response,4,68184,0.0-4.0,NULL,NULL,NULL,5abbee791667e40001d80694,NULL
153,NULL,jsPsych-master/Pitch/1.mp3,NULL,audio-keyboard-response,5,69263,0.0-5.0-0.0,NULL,NULL,NULL,5abbee791667e40001d80694,NULL
154,NULL,"<p style='font-size:48px;'>+</p>",NULL,html-keyboard-response,6,69464,0.0-5.0-1.0,NULL,NULL,NULL,5abbee791667e40001d80694,NULL
155,NULL,jsPsych-master/Pitch/1b.mp3,NULL,audio-keyboard-response,7,70042,0.0-5.0-2.0,NULL,NULL,NULL,5abbee791667e40001d80694,NULL
156,272,"Press the up arrow if the second tone is higher and the down arrow if the second tone is lower.",38,html-keyboard-response,8,70315,0.0-5.0-3.0,NULL,1,1,5abbee791667e40001d80694,NULL
157,NULL,jsPsych-master/Pitch/2b.mp3,NULL,audio-keyboard-response,9,71392,0.0-5.1-0.1,NULL,NULL,NULL,5abbee791667e40001d80694,NULL
158,NULL,"<p style='font-size:48px;'>+</p>",NULL,html-keyboard-response,10,71593,0.0-5.1-1.1,NULL,NULL,NULL,5abbee791667e40001d80694,NULL
159,NULL,jsPsych-master/Pitch/2.mp3,NULL,audio-keyboard-response,11,72172,0.0-5.1-2.1,NULL,NULL,NULL,5abbee791667e40001d80694,NULL
160,267,"Press the up arrow if the second tone is higher and the down arrow if the second tone is lower.",40,html-keyboard-response,12,72441,0.0-5.1-3.1,NULL,2,1,5abbee791667e40001d80694,NULL
161,NULL,jsPsych-master/Pitch/3.mp3,NULL,audio-keyboard-response,13,73522,0.0-5.2-0.2,NULL,NULL,NULL,5abbee791667e40001d80694,NULL
162,NULL,"<p style='font-size:48px;'>+</p>",NULL,html-keyboard-response,14,73723,0.0-5.2-1.2,NULL,NULL,NULL,5abbee791667e40001d80694,NULL
163,NULL,jsPsych-master/Pitch/3b.mp3,NULL,audio-keyboard-response,15,74302,0.0-5.2-2.2,NULL,NULL,NULL,5abbee791667e40001d80694,NULL
164,124,"Press the up arrow if the second tone is higher and the down arrow if the second tone is lower.",38,html-keyboard-response,16,74427,0.0-5.2-3.2,NULL,3,1,5abbee791667e40001d80694,NULL
165,NULL,jsPsych-master/Pitch/4b.mp3,NULL,audio-keyboard-response,17,75502,0.0-5.3-0.3,NULL,NULL,NULL,5abbee791667e40001d80694,NULL
166,NULL,"<p style='font-size:48px;'>+</p>",NULL,html-keyboard-response,18,75703,0.0-5.3-1.3,NULL,NULL,NULL,5abbee791667e40001d80694,NULL
167,NULL,jsPsych-master/Pitch/4.mp3,NULL,audio-keyboard-response,19,76283,0.0-5.3-2.3,NULL,NULL,NULL,5abbee791667e40001d80694,NULL
168,238,"Press the up arrow if the second tone is higher and the down arrow if the second tone is lower.",40,html-keyboard-response,20,76521,0.0-5.3-3.3,NULL,4,1,5abbee791667e40001d80694,NULL
169,NULL,jsPsych-master/Pitch/5b.mp3,NULL,audio-keyboard-response,21,77602,0.0-5.4-0.4,NULL,NULL,NULL,5abbee791667e40001d80694,NULL
170,NULL,"<p style='font-size:48px;'>+</p>",NULL,html-keyboard-response,22,77802,0.0-5.4-1.4,NULL,NULL,NULL,5abbee791667e40001d80694,NULL
171,NULL,jsPsych-master/Pitch/5.mp3,NULL,audio-keyboard-response,23,78382,0.0-5.4-2.4,NULL,NULL,NULL,5abbee791667e40001d80694,NULL
172,400,"Press the up arrow if the second tone is higher and the down arrow if the second tone is lower.",40,html-keyboard-response,24,78782,0.0-5.4-3.4,NULL,5,1,5abbee791667e40001d80694,NULL
173,NULL,jsPsych-master/Pitch/6.mp3,NULL,audio-keyboard-response,25,79862,0.0-5.5-0.5,NULL,NULL,NULL,5abbee791667e40001d80694,NULL
174,NULL,"<p style='font-size:48px;'>+</p>",NULL,html-keyboard-response,26,80063,0.0-5.5-1.5,NULL,NULL,NULL,5abbee791667e40001d80694,NULL
175,NULL,jsPsych-master/Pitch/6b.mp3,NULL,audio-keyboard-response,27,80642,0.0-5.5-2.5,NULL,NULL,NULL,5abbee791667e40001d80694,NULL
176,318,"Press the up arrow if the second tone is higher and the down arrow if the second tone is lower.",38,html-keyboard-response,28,80961,0.0-5.5-3.5,NULL,6,1,5abbee791667e40001d80694,NULL
177,NULL,jsPsych-master/Pitch/7b.mp3,NULL,audio-keyboard-response,29,82042,0.0-5.6-0.6,NULL,NULL,NULL,5abbee791667e40001d80694,NULL
178,NULL,"<p style='font-size:48px;'>+</p>",NULL,html-keyboard-response,30,82243,0.0-5.6-1.6,NULL,NULL,NULL,5abbee791667e40001d80694,NULL
179,NULL,jsPsych-master/Pitch/7.mp3,NULL,audio-keyboard-response,31,82823,0.0-5.6-2.6,NULL,NULL,NULL,5abbee791667e40001d80694,NULL
180,383,"Press the up arrow if the second tone is higher and the down arrow if the second tone is lower.",40,html-keyboard-response,32,83206,0.0-5.6-3.6,NULL,7,1,5abbee791667e40001d80694,NULL
181,NULL,jsPsych-master/Pitch/8b.mp3,NULL,audio-keyboard-response,33,84282,0.0-5.7-0.7,NULL,NULL,NULL,5abbee791667e40001d80694,NULL
182,NULL,"<p style='font-size:48px;'>+</p>",NULL,html-keyboard-response,34,84484,0.0-5.7-1.7,NULL,NULL,NULL,5abbee791667e40001d80694,NULL
183,NULL,jsPsych-master/Pitch/8.mp3,NULL,audio-keyboard-response,35,85062,0.0-5.7-2.7,NULL,NULL,NULL,5abbee791667e40001d80694,NULL
184,1048,"Press the up arrow if the second tone is higher and the down arrow if the second tone is lower.",38,html-keyboard-response,36,86112,0.0-5.7-3.7,NULL,8,,5abbee791667e40001d80694,NULL
185,NULL,jsPsych-master/Pitch/7b.mp3,NULL,audio-keyboard-response,37,87191,0.0-5.8-0.8,NULL,NULL,NULL,5abbee791667e40001d80694,NULL
186,NULL,"<p style='font-size:48px;'>+</p>",NULL,html-keyboard-response,38,87393,0.0-5.8-1.8,NULL,NULL,NULL,5abbee791667e40001d80694,NULL
187,NULL,jsPsych-master/Pitch/7.mp3,NULL,audio-keyboard-response,39,87972,0.0-5.8-2.8,NULL,NULL,NULL,5abbee791667e40001d80694,NULL
188,826,"Press the up arrow if the second tone is higher and the down arrow if the second tone is lower.",40,html-keyboard-response,40,88798,0.0-5.8-3.8,NULL,7,1,5abbee791667e40001d80694,NULL
189,NULL,jsPsych-master/Pitch/8b.mp3,NULL,audio-keyboard-response,41,89872,0.0-5.9-0.9,NULL,NULL,NULL,5abbee791667e40001d80694,NULL
190,NULL,"<p style='font-size:48px;'>+</p>",NULL,html-keyboard-response,42,90073,0.0-5.9-1.9,NULL,NULL,NULL,5abbee791667e40001d80694,NULL
191,NULL,jsPsych-master/Pitch/8.mp3,NULL,audio-keyboard-response,43,90652,0.0-5.9-2.9,NULL,NULL,NULL,5abbee791667e40001d80694,NULL
192,1330,"Press the up arrow if the second tone is higher and the down arrow if the second tone is lower.",40,html-keyboard-response,44,91983,0.0-5.9-3.9,NULL,8,1,5abbee791667e40001d80694,NULL
193,NULL,jsPsych-master/Pitch/9.mp3,NULL,audio-keyboard-response,45,93062,0.0-5.10-0.10,NULL,NULL,NULL,5abbee791667e40001d80694,NULL
194,NULL,"<p style='font-size:48px;'>+</p>",NULL,html-keyboard-response,46,93263,0.0-5.10-1.10,NULL,NULL,NULL,5abbee791667e40001d80694,NULL
195,NULL,jsPsych-master/Pitch/9b.mp3,NULL,audio-keyboard-response,47,93842,0.0-5.10-2.10,NULL,NULL,NULL,5abbee791667e40001d80694,NULL
196,1027,"Press the up arrow if the second tone is higher and the down arrow if the second tone is lower.",40,html-keyboard-response,48,94871,0.0-5.10-3.10,NULL,9,,5abbee791667e40001d80694,NULL
197,NULL,jsPsych-master/Pitch/8b.mp3,NULL,audio-keyboard-response,49,95952,0.0-5.11-0.11,NULL,NULL,NULL,5abbee791667e40001d80694,NULL
198,NULL,"<p style='font-size:48px;'>+</p>",NULL,html-keyboard-response,50,96152,0.0-5.11-1.11,NULL,NULL,NULL,5abbee791667e40001d80694,NULL
199,NULL,jsPsych-master/Pitch/8.mp3,NULL,audio-keyboard-response,51,96732,0.0-5.11-2.11,NULL,NULL,NULL,5abbee791667e40001d80694,NULL
200,1025,"Press the up arrow if the second tone is higher and the down arrow if the second tone is lower.",40,html-keyboard-response,52,97758,0.0-5.11-3.11,NULL,8,1,5abbee791667e40001d80694,NULL
201,NULL,jsPsych-master/Pitch/9b.mp3,NULL,audio-keyboard-response,53,98832,0.0-5.12-0.12,NULL,NULL,NULL,5abbee791667e40001d80694,NULL
202,NULL,"<p style='font-size:48px;'>+</p>",NULL,html-keyboard-response,54,99033,0.0-5.12-1.12,NULL,NULL,NULL,5abbee791667e40001d80694,NULL
203,NULL,jsPsych-master/Pitch/9.mp3,NULL,audio-keyboard-response,55,99612,0.0-5.12-2.12,NULL,NULL,NULL,5abbee791667e40001d80694,NULL
204,2938,"Press the up arrow if the second tone is higher and the down arrow if the second tone is lower.",38,html-keyboard-response,56,102552,0.0-5.12-3.12,NULL,9,,5abbee791667e40001d80694,NULL
205,NULL,jsPsych-master/Pitch/8b.mp3,NULL,audio-keyboard-response,57,103632,0.0-5.13-0.13,NULL,NULL,NULL,5abbee791667e40001d80694,NULL
206,NULL,"<p style='font-size:48px;'>+</p>",NULL,html-keyboard-response,58,103833,0.0-5.13-1.13,NULL,NULL,NULL,5abbee791667e40001d80694,NULL
207,NULL,jsPsych-master/Pitch/8.mp3,NULL,audio-keyboard-response,59,104411,0.0-5.13-2.13,NULL,NULL,NULL,5abbee791667e40001d80694,NULL
208,1099,"Press the up arrow if the second tone is higher and the down arrow if the second tone is lower.",38,html-keyboard-response,60,105511,0.0-5.13-3.13,NULL,8,,5abbee791667e40001d80694,NULL
209,NULL,jsPsych-master/Pitch/7b.mp3,NULL,audio-keyboard-response,61,106592,0.0-5.14-0.14,NULL,NULL,NULL,5abbee791667e40001d80694,NULL
210,NULL,"<p style='font-size:48px;'>+</p>",NULL,html-keyboard-response,62,106792,0.0-5.14-1.14,NULL,NULL,NULL,5abbee791667e40001d80694,NULL
211,NULL,jsPsych-master/Pitch/7.mp3,NULL,audio-keyboard-response,63,107372,0.0-5.14-2.14,NULL,NULL,NULL,5abbee791667e40001d80694,NULL
212,314,"Press the up arrow if the second tone is higher and the down arrow if the second tone is lower.",40,html-keyboard-response,64,107686,0.0-5.14-3.14,NULL,7,1,5abbee791667e40001d80694,NULL
213,NULL,jsPsych-master/Pitch/8.mp3,NULL,audio-keyboard-response,65,108762,0.0-5.15-0.15,NULL,NULL,NULL,5abbee791667e40001d80694,NULL
214,NULL,"<p style='font-size:48px;'>+</p>",NULL,html-keyboard-response,66,108963,0.0-5.15-1.15,NULL,NULL,NULL,5abbee791667e40001d80694,NULL
215,NULL,jsPsych-master/Pitch/8b.mp3,NULL,audio-keyboard-response,67,109542,0.0-5.15-2.15,NULL,NULL,NULL,5abbee791667e40001d80694,NULL
216,616,"Press the up arrow if the second tone is higher and the down arrow if the second tone is lower.",40,html-keyboard-response,68,110159,0.0-5.15-3.15,NULL,8,,5abbee791667e40001d80694,NULL
217,NULL,jsPsych-master/Pitch/7b.mp3,NULL,audio-keyboard-response,69,111232,0.0-5.16-0.16,NULL,NULL,NULL,5abbee791667e40001d80694,NULL
218,NULL,"<p style='font-size:48px;'>+</p>",NULL,html-keyboard-response,70,111433,0.0-5.16-1.16,NULL,NULL,NULL,5abbee791667e40001d80694,NULL
219,NULL,jsPsych-master/Pitch/7.mp3,NULL,audio-keyboard-response,71,112012,0.0-5.16-2.16,NULL,NULL,NULL,5abbee791667e40001d80694,NULL
220,339,"Press the up arrow if the second tone is higher and the down arrow if the second tone is lower.",40,html-keyboard-response,72,112353,0.0-5.16-3.16,NULL,7,1,5abbee791667e40001d80694,NULL
221,NULL,jsPsych-master/Pitch/8.mp3,NULL,audio-keyboard-response,73,113432,0.0-5.17-0.17,NULL,NULL,NULL,5abbee791667e40001d80694,NULL
222,NULL,"<p style='font-size:48px;'>+</p>",NULL,html-keyboard-response,74,113633,0.0-5.17-1.17,NULL,NULL,NULL,5abbee791667e40001d80694,NULL
223,NULL,jsPsych-master/Pitch/8b.mp3,NULL,audio-keyboard-response,75,114212,0.0-5.17-2.17,NULL,NULL,NULL,5abbee791667e40001d80694,NULL
224,551,"Press the up arrow if the second tone is higher and the down arrow if the second tone is lower.",38,html-keyboard-response,76,114763,0.0-5.17-3.17,NULL,8,1,5abbee791667e40001d80694,NULL
225,NULL,jsPsych-master/Pitch/9.mp3,NULL,audio-keyboard-response,77,115842,0.0-5.18-0.18,NULL,NULL,NULL,5abbee791667e40001d80694,NULL
226,NULL,"<p style='font-size:48px;'>+</p>",NULL,html-keyboard-response,78,116043,0.0-5.18-1.18,NULL,NULL,NULL,5abbee791667e40001d80694,NULL
227,NULL,jsPsych-master/Pitch/9b.mp3,NULL,audio-keyboard-response,79,116622,0.0-5.18-2.18,NULL,NULL,NULL,5abbee791667e40001d80694,NULL
228,286,"Press the up arrow if the second tone is higher and the down arrow if the second tone is lower.",40,html-keyboard-response,80,116908,0.0-5.18-3.18,NULL,9,,5abbee791667e40001d80694,NULL
229,NULL,jsPsych-master/Pitch/8.mp3,NULL,audio-keyboard-response,81,117982,0.0-5.19-0.19,NULL,NULL,NULL,5abbee791667e40001d80694,NULL
230,NULL,"<p style='font-size:48px;'>+</p>",NULL,html-keyboard-response,82,118183,0.0-5.19-1.19,NULL,NULL,NULL,5abbee791667e40001d80694,NULL
231,NULL,jsPsych-master/Pitch/8b.mp3,NULL,audio-keyboard-response,83,118762,0.0-5.19-2.19,NULL,NULL,NULL,5abbee791667e40001d80694,NULL
232,660,"Press the up arrow if the second tone is higher and the down arrow if the second tone is lower.",38,html-keyboard-response,84,119423,0.0-5.19-3.19,NULL,8,1,5abbee791667e40001d80694,NULL
233,8861,"<p>In each trial of this task you will hear a person speaking meaningless phrases in a foreign language two times in a row.</p><p>After the person is done speaking, select what emotion best identifies the emotion expressed by the spearker from a list of s",32,html-keyboard-response,85,128785,0.0-6.0,NULL,NULL,NULL,5abbee791667e40001d80694,NULL
234,NULL,jsPsych-master/Emotion_Stimuli/1pA_angry1.mp3,NULL,audio-keyboard-response,86,130642,0.0-7.0-0.0,NULL,NULL,NULL,5abbee791667e40001d80694,NULL
235,NULL,jsPsych-master/Emotion_Stimuli/2pA_angry2.mp3,NULL,audio-keyboard-response,87,132053,0.0-7.0-1.0,NULL,NULL,NULL,5abbee791667e40001d80694,NULL
236,4049,NULL,NULL,survey-multi-choice,88,136107,0.0-7.0-2.0,"{"Q0":"Anger"}",NULL,NULL,5abbee791667e40001d80694,Anger
237,NULL,jsPsych-master/Emotion_Stimuli/90pA_neutral2.mp3,NULL,audio-keyboard-response,89,137651,0.0-7.0-3.0,NULL,NULL,NULL,5abbee791667e40001d80694,NULL
238,NULL,jsPsych-master/Emotion_Stimuli/99pA_neutral11.mp3,NULL,audio-keyboard-response,90,139562,0.0-7.0-4.0,NULL,NULL,NULL,5abbee791667e40001d80694,NULL
239,6535,NULL,NULL,survey-multi-choice,91,146100,0.0-7.0-5.0,"{"Q0":"Sadness"}",NULL,NULL,5abbee791667e40001d80694,Neutral
240,NULL,jsPsych-master/Emotion_Stimuli/165pB_surprise19.mp3,NULL,audio-keyboard-response,92,147431,0.0-7.0-6.0,NULL,NULL,NULL,5abbee791667e40001d80694,NULL
241,NULL,jsPsych-master/Emotion_Stimuli/178pB_surprise32.mp3,NULL,audio-keyboard-response,93,148792,0.0-7.0-7.0,NULL,NULL,NULL,5abbee791667e40001d80694,NULL
242,2935,NULL,NULL,survey-multi-choice,94,151732,0.0-7.0-8.0,"{"Q0":"Happiness"}",NULL,NULL,5abbee791667e40001d80694,Surprise
243,NULL,jsPsych-master/Emotion_Stimuli/40pA_disgust9.mp3,NULL,audio-keyboard-response,95,153492,0.0-7.0-9.0,NULL,NULL,NULL,5abbee791667e40001d80694,NULL
244,NULL,jsPsych-master/Emotion_Stimuli/32pA_disgust1.mp3,NULL,audio-keyboard-response,96,155251,0.0-7.0-10.0,NULL,NULL,NULL,5abbee791667e40001d80694,NULL
245,3901,NULL,NULL,survey-multi-choice,97,159155,0.0-7.0-11.0,"{"Q0":"Surprise"}",NULL,NULL,5abbee791667e40001d80694,Disgust
246,NULL,jsPsych-master/Emotion_Stimuli/15pA_angry15.mp3,NULL,audio-keyboard-response,98,160542,0.0-7.0-12.0,NULL,NULL,NULL,5abbee791667e40001d80694,NULL
247,NULL,jsPsych-master/Emotion_Stimuli/8pA_angry8.mp3,NULL,audio-keyboard-response,99,162092,0.0-7.0-13.0,NULL,NULL,NULL,5abbee791667e40001d80694,NULL
248,1588,NULL,NULL,survey-multi-choice,100,163683,0.0-7.0-14.0,"{"Q0":"Anger"}",NULL,NULL,5abbee791667e40001d80694,Anger
249,NULL,jsPsych-master/Emotion_Stimuli/77pA_happy6.mp3,NULL,audio-keyboard-response,101,165301,0.0-7.0-15.0,NULL,NULL,NULL,5abbee791667e40001d80694,NULL
250,NULL,jsPsych-master/Emotion_Stimuli/72pA_happy1.mp3,NULL,audio-keyboard-response,102,166822,0.0-7.0-16.0,NULL,NULL,NULL,5abbee791667e40001d80694,NULL
251,4702,NULL,NULL,survey-multi-choice,103,171527,0.0-7.0-17.0,"{"Q0":"Happiness"}",NULL,NULL,5abbee791667e40001d80694,Happiness
252,NULL,jsPsych-master/Emotion_Stimuli/157pA_surprise11.mp3,NULL,audio-keyboard-response,104,173301,0.0-7.0-18.0,NULL,NULL,NULL,5abbee791667e40001d80694,NULL
253,NULL,jsPsych-master/Emotion_Stimuli/149pA_surprise3.mp3,NULL,audio-keyboard-response,105,174902,0.0-7.0-19.0,NULL,NULL,NULL,5abbee791667e40001d80694,NULL
254,2669,NULL,NULL,survey-multi-choice,106,177575,0.0-7.0-20.0,"{"Q0":"Surprise"}",NULL,NULL,5abbee791667e40001d80694,Surprise
255,NULL,jsPsych-master/Emotion_Stimuli/133pB_sad15.mp3,NULL,audio-keyboard-response,107,178982,0.0-7.0-21.0,NULL,NULL,NULL,5abbee791667e40001d80694,NULL
256,NULL,jsPsych-master/Emotion_Stimuli/145pB_sad27.mp3,NULL,audio-keyboard-response,108,180552,0.0-7.0-22.0,NULL,NULL,NULL,5abbee791667e40001d80694,NULL
257,2035,NULL,NULL,survey-multi-choice,109,182590,0.0-7.0-23.0,"{"Q0":"Sadness"}",NULL,NULL,5abbee791667e40001d80694,Sadness
258,NULL,jsPsych-master/Emotion_Stimuli/84pB_happy13.mp3,NULL,audio-keyboard-response,110,184082,0.0-7.0-24.0,NULL,NULL,NULL,5abbee791667e40001d80694,NULL
259,NULL,jsPsych-master/Emotion_Stimuli/85pB_happy14.mp3,NULL,audio-keyboard-response,111,185361,0.0-7.0-25.0,NULL,NULL,NULL,5abbee791667e40001d80694,NULL
260,4145,NULL,NULL,survey-multi-choice,112,189511,0.0-7.0-26.0,"{"Q0":"Anger"}",NULL,NULL,5abbee791667e40001d80694,Happiness
261,NULL,jsPsych-master/Emotion_Stimuli/68pB_fear14.mp3,NULL,audio-keyboard-response,113,190862,0.0-7.0-27.0,NULL,NULL,NULL,5abbee791667e40001d80694,NULL
262,NULL,jsPsych-master/Emotion_Stimuli/63pB_fear9.mp3,NULL,audio-keyboard-response,114,192071,0.0-7.0-28.0,NULL,NULL,NULL,5abbee791667e40001d80694,NULL
263,2371,NULL,NULL,survey-multi-choice,115,194447,0.0-7.0-29.0,"{"Q0":"Fear"}",NULL,NULL,5abbee791667e40001d80694,Fear
264,NULL,jsPsych-master/Emotion_Stimuli/134pB_sad16.mp3,NULL,audio-keyboard-response,116,195852,0.0-7.0-30.0,NULL,NULL,NULL,5abbee791667e40001d80694,NULL
265,NULL,jsPsych-master/Emotion_Stimuli/144pB_sad26.mp3,NULL,audio-keyboard-response,117,197502,0.0-7.0-31.0,NULL,NULL,NULL,5abbee791667e40001d80694,NULL
266,4949,NULL,NULL,survey-multi-choice,118,202455,0.0-7.0-32.0,"{"Q0":"Sadness"}",NULL,NULL,5abbee791667e40001d80694,Sadness
267,NULL,jsPsych-master/Emotion_Stimuli/122pA_sad4.mp3,NULL,audio-keyboard-response,119,203812,0.0-7.0-33.0,NULL,NULL,NULL,5abbee791667e40001d80694,NULL
268,NULL,jsPsych-master/Emotion_Stimuli/120pA_sad2.mp3,NULL,audio-keyboard-response,120,205772,0.0-7.0-34.0,NULL,NULL,NULL,5abbee791667e40001d80694,NULL
269,2283,NULL,NULL,survey-multi-choice,121,208059,0.0-7.0-35.0,"{"Q0":"Sadness"}",NULL,NULL,5abbee791667e40001d80694,Sadness
270,NULL,jsPsych-master/Emotion_Stimuli/113pB_neutral25.mp3,NULL,audio-keyboard-response,122,209541,0.0-7.0-36.0,NULL,NULL,NULL,5abbee791667e40001d80694,NULL
271,NULL,jsPsych-master/Emotion_Stimuli/105pB_neutral17.mp3,NULL,audio-keyboard-response,123,210982,0.0-7.0-37.0,NULL,NULL,NULL,5abbee791667e40001d80694,NULL
272,1974,NULL,NULL,survey-multi-choice,124,212958,0.0-7.0-38.0,"{"Q0":"Neutral"}",NULL,NULL,5abbee791667e40001d80694,Neutral
273,NULL,jsPsych-master/Emotion_Stimuli/25pB_angry25.mp3,NULL,audio-keyboard-response,125,214211,0.0-7.0-39.0,NULL,NULL,NULL,5abbee791667e40001d80694,NULL
274,NULL,jsPsych-master/Emotion_Stimuli/20pB_angry20.mp3,NULL,audio-keyboard-response,126,215342,0.0-7.0-40.0,NULL,NULL,NULL,5abbee791667e40001d80694,NULL
275,3422,NULL,NULL,survey-multi-choice,127,218766,0.0-7.0-41.0,"{"Q0":"Anger"}",NULL,NULL,5abbee791667e40001d80694,Anger
276,NULL,jsPsych-master/Emotion_Stimuli/42pA_disgust11.mp3,NULL,audio-keyboard-response,128,220751,0.0-7.0-42.0,NULL,NULL,NULL,5abbee791667e40001d80694,NULL
277,NULL,jsPsych-master/Emotion_Stimuli/33pA_disgust2.mp3,NULL,audio-keyboard-response,129,222421,0.0-7.0-43.0,NULL,NULL,NULL,5abbee791667e40001d80694,NULL
278,1534,NULL,NULL,survey-multi-choice,130,223959,0.0-7.0-44.0,"{"Q0":"Surprise"}",NULL,NULL,5abbee791667e40001d80694,Disgust
279,NULL,jsPsych-master/Emotion_Stimuli/100pA_neutral12.mp3,NULL,audio-keyboard-response,131,225552,0.0-7.0-45.0,NULL,NULL,NULL,5abbee791667e40001d80694,NULL
280,NULL,jsPsych-master/Emotion_Stimuli/102pA_neutral14.mp3,NULL,audio-keyboard-response,132,227462,0.0-7.0-46.0,NULL,NULL,NULL,5abbee791667e40001d80694,NULL
281,3065,NULL,NULL,survey-multi-choice,133,230531,0.0-7.0-47.0,"{"Q0":"Neutral"}",NULL,NULL,5abbee791667e40001d80694,Neutral
282,NULL,jsPsych-master/Emotion_Stimuli/171pB_surprise25.mp3,NULL,audio-keyboard-response,134,232162,0.0-7.0-48.0,NULL,NULL,NULL,5abbee791667e40001d80694,NULL
283,NULL,jsPsych-master/Emotion_Stimuli/169pB_surprise23.mp3,NULL,audio-keyboard-response,135,233552,0.0-7.0-49.0,NULL,NULL,NULL,5abbee791667e40001d80694,NULL
284,2037,NULL,NULL,survey-multi-choice,136,235590,0.0-7.0-50.0,"{"Q0":"Happiness"}",NULL,NULL,5abbee791667e40001d80694,Surprise
285,NULL,jsPsych-master/Emotion_Stimuli/87pB_happy16.mp3,NULL,audio-keyboard-response,137,237151,0.0-7.0-51.0,NULL,NULL,NULL,5abbee791667e40001d80694,NULL
286,NULL,jsPsych-master/Emotion_Stimuli/86pB_happy15.mp3,NULL,audio-keyboard-response,138,238512,0.0-7.0-52.0,NULL,NULL,NULL,5abbee791667e40001d80694,NULL
287,4599,NULL,NULL,survey-multi-choice,139,243115,0.0-7.0-53.0,"{"Q0":"Surprise"}",NULL,NULL,5abbee791667e40001d80694,Happiness
288,NULL,jsPsych-master/Emotion_Stimuli/46pB_disgust15.mp3,NULL,audio-keyboard-response,140,244341,0.0-7.0-54.0,NULL,NULL,NULL,5abbee791667e40001d80694,NULL
289,NULL,jsPsych-master/Emotion_Stimuli/51pB_disgust20.mp3,NULL,audio-keyboard-response,141,245912,0.0-7.0-55.0,NULL,NULL,NULL,5abbee791667e40001d80694,NULL
290,1568,NULL,NULL,survey-multi-choice,142,247484,0.0-7.0-56.0,"{"Q0":"Disgust"}",NULL,NULL,5abbee791667e40001d80694,Disgust
291,NULL,jsPsych-master/Emotion_Stimuli/67pB_fear13.mp3,NULL,audio-keyboard-response,143,248711,0.0-7.0-57.0,NULL,NULL,NULL,5abbee791667e40001d80694,NULL
292,NULL,jsPsych-master/Emotion_Stimuli/69pB_fear15.mp3,NULL,audio-keyboard-response,144,250051,0.0-7.0-58.0,NULL,NULL,NULL,5abbee791667e40001d80694,NULL
293,2656,NULL,NULL,survey-multi-choice,145,252710,0.0-7.0-59.0,"{"Q0":"Fear"}",NULL,NULL,5abbee791667e40001d80694,Fear
294,13059,"This experiment is being conducted at Vassar College. It consists of a pitch discrimination task and an emotion identification task. The study takes approximately 8-10 minutes to complete.  Participation poses minimal risk, meaning the risk is no greater ",32,html-keyboard-response,0,13060,0.0-0.0,NULL,NULL,NULL,592eb652b97ad000017449da,NULL
295,8390,"<p>Thank you for agreeing to participate in this experiment.</p><p>In this study you will be complete a pitch discrimination task then you will be presented with voice sound clips and asked to identify the emotion associated with the voice.</p><p>Before w",32,html-keyboard-response,1,21953,0.0-1.0,NULL,NULL,NULL,592eb652b97ad000017449da,NULL
296,14509,NULL,NULL,survey-text,2,36965,0.0-2.0,"{"Q0":"5"}",NULL,NULL,592eb652b97ad000017449da,NULL
297,NULL,jsPsych-master/K.mp3,NULL,audio-keyboard-response,3,44046,0.0-3.0-0.0,NULL,NULL,NULL,592eb652b97ad000017449da,NULL
298,192,jsPsych-master/K.mp3,75,audio-keyboard-response,4,44746,0.0-3.1-0.1,NULL,NULL,NULL,592eb652b97ad000017449da,NULL
299,7855,"<p>In this task you will hear two tones played in quick succession. If the second tone is higher than the first please press the up arrow key on your keyboard. If the second tone is lower than the first press the down arrow on your keyboard.</p><p>Press t",32,html-keyboard-response,5,53104,0.0-4.0,NULL,NULL,NULL,592eb652b97ad000017449da,NULL
300,NULL,jsPsych-master/Pitch/1.mp3,NULL,audio-keyboard-response,6,54182,0.0-5.0-0.0,NULL,NULL,NULL,592eb652b97ad000017449da,NULL
301,NULL,"<p style='font-size:48px;'>+</p>",NULL,html-keyboard-response,7,54385,0.0-5.0-1.0,NULL,NULL,NULL,592eb652b97ad000017449da,NULL
302,NULL,jsPsych-master/Pitch/1b.mp3,NULL,audio-keyboard-response,8,54960,0.0-5.0-2.0,NULL,NULL,NULL,592eb652b97ad000017449da,NULL
303,801,"Press the up arrow if the second tone is higher and the down arrow if the second tone is lower.",38,html-keyboard-response,9,55762,0.0-5.0-3.0,NULL,1,1,592eb652b97ad000017449da,NULL
304,NULL,jsPsych-master/Pitch/2.mp3,NULL,audio-keyboard-response,10,56835,0.0-5.1-0.1,NULL,NULL,NULL,592eb652b97ad000017449da,NULL
305,NULL,"<p style='font-size:48px;'>+</p>",NULL,html-keyboard-response,11,57038,0.0-5.1-1.1,NULL,NULL,NULL,592eb652b97ad000017449da,NULL
306,NULL,jsPsych-master/Pitch/2b.mp3,NULL,audio-keyboard-response,12,57613,0.0-5.1-2.1,NULL,NULL,NULL,592eb652b97ad000017449da,NULL
307,623,"Press the up arrow if the second tone is higher and the down arrow if the second tone is lower.",38,html-keyboard-response,13,58236,0.0-5.1-3.1,NULL,2,1,592eb652b97ad000017449da,NULL
308,NULL,jsPsych-master/Pitch/3b.mp3,NULL,audio-keyboard-response,14,59314,0.0-5.2-0.2,NULL,NULL,NULL,592eb652b97ad000017449da,NULL
309,NULL,"<p style='font-size:48px;'>+</p>",NULL,html-keyboard-response,15,59517,0.0-5.2-1.2,NULL,NULL,NULL,592eb652b97ad000017449da,NULL
310,NULL,jsPsych-master/Pitch/3.mp3,NULL,audio-keyboard-response,16,60091,0.0-5.2-2.2,NULL,NULL,NULL,592eb652b97ad000017449da,NULL
311,494,"Press the up arrow if the second tone is higher and the down arrow if the second tone is lower.",40,html-keyboard-response,17,60586,0.0-5.2-3.2,NULL,3,1,592eb652b97ad000017449da,NULL
312,NULL,jsPsych-master/Pitch/4.mp3,NULL,audio-keyboard-response,18,61660,0.0-5.3-0.3,NULL,NULL,NULL,592eb652b97ad000017449da,NULL
313,NULL,"<p style='font-size:48px;'>+</p>",NULL,html-keyboard-response,19,61862,0.0-5.3-1.3,NULL,NULL,NULL,592eb652b97ad000017449da,NULL
314,NULL,jsPsych-master/Pitch/4b.mp3,NULL,audio-keyboard-response,20,62437,0.0-5.3-2.3,NULL,NULL,NULL,592eb652b97ad000017449da,NULL
315,201,"Press the up arrow if the second tone is higher and the down arrow if the second tone is lower.",38,html-keyboard-response,21,62639,0.0-5.3-3.3,NULL,4,1,592eb652b97ad000017449da,NULL
316,NULL,jsPsych-master/Pitch/5.mp3,NULL,audio-keyboard-response,22,63714,0.0-5.4-0.4,NULL,NULL,NULL,592eb652b97ad000017449da,NULL
317,NULL,"<p style='font-size:48px;'>+</p>",NULL,html-keyboard-response,23,63918,0.0-5.4-1.4,NULL,NULL,NULL,592eb652b97ad000017449da,NULL
318,NULL,jsPsych-master/Pitch/5b.mp3,NULL,audio-keyboard-response,24,64492,0.0-5.4-2.4,NULL,NULL,NULL,592eb652b97ad000017449da,NULL
319,299,"Press the up arrow if the second tone is higher and the down arrow if the second tone is lower.",38,html-keyboard-response,25,64792,0.0-5.4-3.4,NULL,5,1,592eb652b97ad000017449da,NULL
320,NULL,jsPsych-master/Pitch/6b.mp3,NULL,audio-keyboard-response,26,65868,0.0-5.5-0.5,NULL,NULL,NULL,592eb652b97ad000017449da,NULL
321,NULL,"<p style='font-size:48px;'>+</p>",NULL,html-keyboard-response,27,66071,0.0-5.5-1.5,NULL,NULL,NULL,592eb652b97ad000017449da,NULL
322,NULL,jsPsych-master/Pitch/6.mp3,NULL,audio-keyboard-response,28,66646,0.0-5.5-2.5,NULL,NULL,NULL,592eb652b97ad000017449da,NULL
323,780,"Press the up arrow if the second tone is higher and the down arrow if the second tone is lower.",40,html-keyboard-response,29,67426,0.0-5.5-3.5,NULL,6,1,592eb652b97ad000017449da,NULL
324,NULL,jsPsych-master/Pitch/7b.mp3,NULL,audio-keyboard-response,30,68503,0.0-5.6-0.6,NULL,NULL,NULL,592eb652b97ad000017449da,NULL
325,NULL,"<p style='font-size:48px;'>+</p>",NULL,html-keyboard-response,31,68709,0.0-5.6-1.6,NULL,NULL,NULL,592eb652b97ad000017449da,NULL
326,NULL,jsPsych-master/Pitch/7.mp3,NULL,audio-keyboard-response,32,69281,0.0-5.6-2.6,NULL,NULL,NULL,592eb652b97ad000017449da,NULL
327,449,"Press the up arrow if the second tone is higher and the down arrow if the second tone is lower.",40,html-keyboard-response,33,69732,0.0-5.6-3.6,NULL,7,1,592eb652b97ad000017449da,NULL
328,NULL,jsPsych-master/Pitch/8b.mp3,NULL,audio-keyboard-response,34,70808,0.0-5.7-0.7,NULL,NULL,NULL,592eb652b97ad000017449da,NULL
329,NULL,"<p style='font-size:48px;'>+</p>",NULL,html-keyboard-response,35,71013,0.0-5.7-1.7,NULL,NULL,NULL,592eb652b97ad000017449da,NULL
330,NULL,jsPsych-master/Pitch/8.mp3,NULL,audio-keyboard-response,36,71587,0.0-5.7-2.7,NULL,NULL,NULL,592eb652b97ad000017449da,NULL
331,885,"Press the up arrow if the second tone is higher and the down arrow if the second tone is lower.",38,html-keyboard-response,37,72472,0.0-5.7-3.7,NULL,8,,592eb652b97ad000017449da,NULL
332,NULL,jsPsych-master/Pitch/7.mp3,NULL,audio-keyboard-response,38,73548,0.0-5.8-0.8,NULL,NULL,NULL,592eb652b97ad000017449da,NULL
333,NULL,"<p style='font-size:48px;'>+</p>",NULL,html-keyboard-response,39,73752,0.0-5.8-1.8,NULL,NULL,NULL,592eb652b97ad000017449da,NULL
334,NULL,jsPsych-master/Pitch/7b.mp3,NULL,audio-keyboard-response,40,74326,0.0-5.8-2.8,NULL,NULL,NULL,592eb652b97ad000017449da,NULL
335,340,"Press the up arrow if the second tone is higher and the down arrow if the second tone is lower.",40,html-keyboard-response,41,74667,0.0-5.8-3.8,NULL,7,,592eb652b97ad000017449da,NULL
336,NULL,jsPsych-master/Pitch/6b.mp3,NULL,audio-keyboard-response,42,75743,0.0-5.9-0.9,NULL,NULL,NULL,592eb652b97ad000017449da,NULL
337,NULL,"<p style='font-size:48px;'>+</p>",NULL,html-keyboard-response,43,75947,0.0-5.9-1.9,NULL,NULL,NULL,592eb652b97ad000017449da,NULL
338,NULL,jsPsych-master/Pitch/6.mp3,NULL,audio-keyboard-response,44,76521,0.0-5.9-2.9,NULL,NULL,NULL,592eb652b97ad000017449da,NULL
339,212,"Press the up arrow if the second tone is higher and the down arrow if the second tone is lower.",40,html-keyboard-response,45,76733,0.0-5.9-3.9,NULL,6,1,592eb652b97ad000017449da,NULL
340,NULL,jsPsych-master/Pitch/7b.mp3,NULL,audio-keyboard-response,46,77809,0.0-5.10-0.10,NULL,NULL,NULL,592eb652b97ad000017449da,NULL
341,NULL,"<p style='font-size:48px;'>+</p>",NULL,html-keyboard-response,47,78012,0.0-5.10-1.10,NULL,NULL,NULL,592eb652b97ad000017449da,NULL
342,NULL,jsPsych-master/Pitch/7.mp3,NULL,audio-keyboard-response,48,78587,0.0-5.10-2.10,NULL,NULL,NULL,592eb652b97ad000017449da,NULL
343,340,"Press the up arrow if the second tone is higher and the down arrow if the second tone is lower.",40,html-keyboard-response,49,78928,0.0-5.10-3.10,NULL,7,1,592eb652b97ad000017449da,NULL
344,NULL,jsPsych-master/Pitch/8b.mp3,NULL,audio-keyboard-response,50,80004,0.0-5.11-0.11,NULL,NULL,NULL,592eb652b97ad000017449da,NULL
345,NULL,"<p style='font-size:48px;'>+</p>",NULL,html-keyboard-response,51,80209,0.0-5.11-1.11,NULL,NULL,NULL,592eb652b97ad000017449da,NULL
346,NULL,jsPsych-master/Pitch/8.mp3,NULL,audio-keyboard-response,52,80781,0.0-5.11-2.11,NULL,NULL,NULL,592eb652b97ad000017449da,NULL
347,182,"Press the up arrow if the second tone is higher and the down arrow if the second tone is lower.",40,html-keyboard-response,53,80964,0.0-5.11-3.11,NULL,8,1,592eb652b97ad000017449da,NULL
348,NULL,jsPsych-master/Pitch/9.mp3,NULL,audio-keyboard-response,54,82041,0.0-5.12-0.12,NULL,NULL,NULL,592eb652b97ad000017449da,NULL
349,NULL,"<p style='font-size:48px;'>+</p>",NULL,html-keyboard-response,55,82245,0.0-5.12-1.12,NULL,NULL,NULL,592eb652b97ad000017449da,NULL
350,NULL,jsPsych-master/Pitch/9b.mp3,NULL,audio-keyboard-response,56,82819,0.0-5.12-2.12,NULL,NULL,NULL,592eb652b97ad000017449da,NULL
351,280,"Press the up arrow if the second tone is higher and the down arrow if the second tone is lower.",40,html-keyboard-response,57,83099,0.0-5.12-3.12,NULL,9,,592eb652b97ad000017449da,NULL
352,NULL,jsPsych-master/Pitch/8b.mp3,NULL,audio-keyboard-response,58,84172,0.0-5.13-0.13,NULL,NULL,NULL,592eb652b97ad000017449da,NULL
353,NULL,"<p style='font-size:48px;'>+</p>",NULL,html-keyboard-response,59,84374,0.0-5.13-1.13,NULL,NULL,NULL,592eb652b97ad000017449da,NULL
354,NULL,jsPsych-master/Pitch/8.mp3,NULL,audio-keyboard-response,60,84949,0.0-5.13-2.13,NULL,NULL,NULL,592eb652b97ad000017449da,NULL
355,341,"Press the up arrow if the second tone is higher and the down arrow if the second tone is lower.",40,html-keyboard-response,61,85291,0.0-5.13-3.13,NULL,8,1,592eb652b97ad000017449da,NULL
356,NULL,jsPsych-master/Pitch/9b.mp3,NULL,audio-keyboard-response,62,86366,0.0-5.14-0.14,NULL,NULL,NULL,592eb652b97ad000017449da,NULL
357,NULL,"<p style='font-size:48px;'>+</p>",NULL,html-keyboard-response,63,86571,0.0-5.14-1.14,NULL,NULL,NULL,592eb652b97ad000017449da,NULL
358,NULL,jsPsych-master/Pitch/9.mp3,NULL,audio-keyboard-response,64,87144,0.0-5.14-2.14,NULL,NULL,NULL,592eb652b97ad000017449da,NULL
359,184,"Press the up arrow if the second tone is higher and the down arrow if the second tone is lower.",40,html-keyboard-response,65,87329,0.0-5.14-3.14,NULL,9,1,592eb652b97ad000017449da,NULL
360,NULL,jsPsych-master/Pitch/10b.mp3,NULL,audio-keyboard-response,66,88404,0.0-5.15-0.15,NULL,NULL,NULL,592eb652b97ad000017449da,NULL
361,NULL,"<p style='font-size:48px;'>+</p>",NULL,html-keyboard-response,67,88609,0.0-5.15-1.15,NULL,NULL,NULL,592eb652b97ad000017449da,NULL
362,NULL,jsPsych-master/Pitch/10.mp3,NULL,audio-keyboard-response,68,89181,0.0-5.15-2.15,NULL,NULL,NULL,592eb652b97ad000017449da,NULL
363,107,"Press the up arrow if the second tone is higher and the down arrow if the second tone is lower.",38,html-keyboard-response,69,89290,0.0-5.15-3.15,NULL,10,,592eb652b97ad000017449da,NULL
364,NULL,jsPsych-master/Pitch/9.mp3,NULL,audio-keyboard-response,70,90366,0.0-5.16-0.16,NULL,NULL,NULL,592eb652b97ad000017449da,NULL
365,NULL,"<p style='font-size:48px;'>+</p>",NULL,html-keyboard-response,71,90567,0.0-5.16-1.16,NULL,NULL,NULL,592eb652b97ad000017449da,NULL
366,NULL,jsPsych-master/Pitch/9b.mp3,NULL,audio-keyboard-response,72,91138,0.0-5.16-2.16,NULL,NULL,NULL,592eb652b97ad000017449da,NULL
367,1222,"Press the up arrow if the second tone is higher and the down arrow if the second tone is lower.",40,html-keyboard-response,73,92362,0.0-5.16-3.16,NULL,9,,592eb652b97ad000017449da,NULL
368,NULL,jsPsych-master/Pitch/8b.mp3,NULL,audio-keyboard-response,74,93437,0.0-5.17-0.17,NULL,NULL,NULL,592eb652b97ad000017449da,NULL
369,NULL,"<p style='font-size:48px;'>+</p>",NULL,html-keyboard-response,75,93643,0.0-5.17-1.17,NULL,NULL,NULL,592eb652b97ad000017449da,NULL
370,NULL,jsPsych-master/Pitch/8.mp3,NULL,audio-keyboard-response,76,94214,0.0-5.17-2.17,NULL,NULL,NULL,592eb652b97ad000017449da,NULL
371,373,"Press the up arrow if the second tone is higher and the down arrow if the second tone is lower.",40,html-keyboard-response,77,94589,0.0-5.17-3.17,NULL,8,1,592eb652b97ad000017449da,NULL
372,NULL,jsPsych-master/Pitch/9.mp3,NULL,audio-keyboard-response,78,95666,0.0-5.18-0.18,NULL,NULL,NULL,592eb652b97ad000017449da,NULL
373,NULL,"<p style='font-size:48px;'>+</p>",NULL,html-keyboard-response,79,95868,0.0-5.18-1.18,NULL,NULL,NULL,592eb652b97ad000017449da,NULL
374,NULL,jsPsych-master/Pitch/9b.mp3,NULL,audio-keyboard-response,80,96438,0.0-5.18-2.18,NULL,NULL,NULL,592eb652b97ad000017449da,NULL
375,1110,"Press the up arrow if the second tone is higher and the down arrow if the second tone is lower.",40,html-keyboard-response,81,97550,0.0-5.18-3.18,NULL,9,,592eb652b97ad000017449da,NULL
376,NULL,jsPsych-master/Pitch/8.mp3,NULL,audio-keyboard-response,82,98627,0.0-5.19-0.19,NULL,NULL,NULL,592eb652b97ad000017449da,NULL
377,NULL,"<p style='font-size:48px;'>+</p>",NULL,html-keyboard-response,83,98830,0.0-5.19-1.19,NULL,NULL,NULL,592eb652b97ad000017449da,NULL
378,NULL,jsPsych-master/Pitch/8b.mp3,NULL,audio-keyboard-response,84,99405,0.0-5.19-2.19,NULL,NULL,NULL,592eb652b97ad000017449da,NULL
379,201,"Press the up arrow if the second tone is higher and the down arrow if the second tone is lower.",40,html-keyboard-response,85,99606,0.0-5.19-3.19,NULL,8,,592eb652b97ad000017449da,NULL
380,8185,"<p>In each trial of this task you will hear a person speaking meaningless phrases in a foreign language two times in a row.</p><p>After the person is done speaking, select what emotion best identifies the emotion expressed by the spearker from a list of s",32,html-keyboard-response,86,108295,0.0-6.0,NULL,NULL,NULL,592eb652b97ad000017449da,NULL
381,NULL,jsPsych-master/Emotion_Stimuli/1pA_angry1.mp3,NULL,audio-keyboard-response,87,110156,0.0-7.0-0.0,NULL,NULL,NULL,592eb652b97ad000017449da,NULL
382,NULL,jsPsych-master/Emotion_Stimuli/2pA_angry2.mp3,NULL,audio-keyboard-response,88,111567,0.0-7.0-1.0,NULL,NULL,NULL,592eb652b97ad000017449da,NULL
383,8645,NULL,NULL,survey-multi-choice,89,120215,0.0-7.0-2.0,"{"Q0":"Anger"}",NULL,NULL,592eb652b97ad000017449da,Anger
384,NULL,jsPsych-master/Emotion_Stimuli/90pA_neutral2.mp3,NULL,audio-keyboard-response,90,121754,0.0-7.0-3.0,NULL,NULL,NULL,592eb652b97ad000017449da,NULL
385,NULL,jsPsych-master/Emotion_Stimuli/99pA_neutral11.mp3,NULL,audio-keyboard-response,91,123665,0.0-7.0-4.0,NULL,NULL,NULL,592eb652b97ad000017449da,NULL
386,2869,NULL,NULL,survey-multi-choice,92,126535,0.0-7.0-5.0,"{"Q0":"Neutral"}",NULL,NULL,592eb652b97ad000017449da,Neutral
387,NULL,jsPsych-master/Emotion_Stimuli/165pB_surprise19.mp3,NULL,audio-keyboard-response,93,127867,0.0-7.0-6.0,NULL,NULL,NULL,592eb652b97ad000017449da,NULL
388,NULL,jsPsych-master/Emotion_Stimuli/178pB_surprise32.mp3,NULL,audio-keyboard-response,94,129225,0.0-7.0-7.0,NULL,NULL,NULL,592eb652b97ad000017449da,NULL
389,4257,NULL,NULL,survey-multi-choice,95,133486,0.0-7.0-8.0,"{"Q0":"Happiness"}",NULL,NULL,592eb652b97ad000017449da,Surprise
390,NULL,jsPsych-master/Emotion_Stimuli/40pA_disgust9.mp3,NULL,audio-keyboard-response,96,135234,0.0-7.0-9.0,NULL,NULL,NULL,592eb652b97ad000017449da,NULL
391,NULL,jsPsych-master/Emotion_Stimuli/32pA_disgust1.mp3,NULL,audio-keyboard-response,97,136988,0.0-7.0-10.0,NULL,NULL,NULL,592eb652b97ad000017449da,NULL
392,4048,NULL,NULL,survey-multi-choice,98,141037,0.0-7.0-11.0,"{"Q0":"Neutral"}",NULL,NULL,592eb652b97ad000017449da,Disgust
393,NULL,jsPsych-master/Emotion_Stimuli/15pA_angry15.mp3,NULL,audio-keyboard-response,99,142421,0.0-7.0-12.0,NULL,NULL,NULL,592eb652b97ad000017449da,NULL
394,NULL,jsPsych-master/Emotion_Stimuli/8pA_angry8.mp3,NULL,audio-keyboard-response,100,143965,0.0-7.0-13.0,NULL,NULL,NULL,592eb652b97ad000017449da,NULL
395,1903,NULL,NULL,survey-multi-choice,101,145870,0.0-7.0-14.0,"{"Q0":"Anger"}",NULL,NULL,592eb652b97ad000017449da,Anger
396,NULL,jsPsych-master/Emotion_Stimuli/77pA_happy6.mp3,NULL,audio-keyboard-response,102,147489,0.0-7.0-15.0,NULL,NULL,NULL,592eb652b97ad000017449da,NULL
397,NULL,jsPsych-master/Emotion_Stimuli/72pA_happy1.mp3,NULL,audio-keyboard-response,103,149004,0.0-7.0-16.0,NULL,NULL,NULL,592eb652b97ad000017449da,NULL
398,2066,NULL,NULL,survey-multi-choice,104,151072,0.0-7.0-17.0,"{"Q0":"Happiness"}",NULL,NULL,592eb652b97ad000017449da,Happiness
399,NULL,jsPsych-master/Emotion_Stimuli/157pA_surprise11.mp3,NULL,audio-keyboard-response,105,152847,0.0-7.0-18.0,NULL,NULL,NULL,592eb652b97ad000017449da,NULL
400,NULL,jsPsych-master/Emotion_Stimuli/149pA_surprise3.mp3,NULL,audio-keyboard-response,106,154444,0.0-7.0-19.0,NULL,NULL,NULL,592eb652b97ad000017449da,NULL
401,2995,NULL,NULL,survey-multi-choice,107,157441,0.0-7.0-20.0,"{"Q0":"Happiness"}",NULL,NULL,592eb652b97ad000017449da,Surprise
402,NULL,jsPsych-master/Emotion_Stimuli/133pB_sad15.mp3,NULL,audio-keyboard-response,108,158850,0.0-7.0-21.0,NULL,NULL,NULL,592eb652b97ad000017449da,NULL
403,NULL,jsPsych-master/Emotion_Stimuli/145pB_sad27.mp3,NULL,audio-keyboard-response,109,160417,0.0-7.0-22.0,NULL,NULL,NULL,592eb652b97ad000017449da,NULL
404,2988,NULL,NULL,survey-multi-choice,110,163407,0.0-7.0-23.0,"{"Q0":"Fear"}",NULL,NULL,592eb652b97ad000017449da,Sadness
405,NULL,jsPsych-master/Emotion_Stimuli/84pB_happy13.mp3,NULL,audio-keyboard-response,111,164899,0.0-7.0-24.0,NULL,NULL,NULL,592eb652b97ad000017449da,NULL
406,NULL,jsPsych-master/Emotion_Stimuli/85pB_happy14.mp3,NULL,audio-keyboard-response,112,166182,0.0-7.0-25.0,NULL,NULL,NULL,592eb652b97ad000017449da,NULL
407,6539,NULL,NULL,survey-multi-choice,113,172726,0.0-7.0-26.0,"{"Q0":"Happiness"}",NULL,NULL,592eb652b97ad000017449da,Happiness
408,NULL,jsPsych-master/Emotion_Stimuli/68pB_fear14.mp3,NULL,audio-keyboard-response,114,174082,0.0-7.0-27.0,NULL,NULL,NULL,592eb652b97ad000017449da,NULL
409,NULL,jsPsych-master/Emotion_Stimuli/63pB_fear9.mp3,NULL,audio-keyboard-response,115,175284,0.0-7.0-28.0,NULL,NULL,NULL,592eb652b97ad000017449da,NULL
410,2238,NULL,NULL,survey-multi-choice,116,177525,0.0-7.0-29.0,"{"Q0":"Fear"}",NULL,NULL,592eb652b97ad000017449da,Fear
411,NULL,jsPsych-master/Emotion_Stimuli/134pB_sad16.mp3,NULL,audio-keyboard-response,117,178931,0.0-7.0-30.0,NULL,NULL,NULL,592eb652b97ad000017449da,NULL
412,NULL,jsPsych-master/Emotion_Stimuli/144pB_sad26.mp3,NULL,audio-keyboard-response,118,180579,0.0-7.0-31.0,NULL,NULL,NULL,592eb652b97ad000017449da,NULL
413,2851,NULL,NULL,survey-multi-choice,119,183431,0.0-7.0-32.0,"{"Q0":"Sadness"}",NULL,NULL,592eb652b97ad000017449da,Sadness
414,NULL,jsPsych-master/Emotion_Stimuli/122pA_sad4.mp3,NULL,audio-keyboard-response,120,184788,0.0-7.0-33.0,NULL,NULL,NULL,592eb652b97ad000017449da,NULL
415,NULL,jsPsych-master/Emotion_Stimuli/120pA_sad2.mp3,NULL,audio-keyboard-response,121,186750,0.0-7.0-34.0,NULL,NULL,NULL,592eb652b97ad000017449da,NULL
416,3996,NULL,NULL,survey-multi-choice,122,190747,0.0-7.0-35.0,"{"Q0":"Disgust"}",NULL,NULL,592eb652b97ad000017449da,Sadness
417,NULL,jsPsych-master/Emotion_Stimuli/113pB_neutral25.mp3,NULL,audio-keyboard-response,123,192235,0.0-7.0-36.0,NULL,NULL,NULL,592eb652b97ad000017449da,NULL
418,NULL,jsPsych-master/Emotion_Stimuli/105pB_neutral17.mp3,NULL,audio-keyboard-response,124,193675,0.0-7.0-37.0,NULL,NULL,NULL,592eb652b97ad000017449da,NULL
419,3551,NULL,NULL,survey-multi-choice,125,197229,0.0-7.0-38.0,"{"Q0":"Neutral"}",NULL,NULL,592eb652b97ad000017449da,Neutral
420,NULL,jsPsych-master/Emotion_Stimuli/25pB_angry25.mp3,NULL,audio-keyboard-response,126,198482,0.0-7.0-39.0,NULL,NULL,NULL,592eb652b97ad000017449da,NULL
421,NULL,jsPsych-master/Emotion_Stimuli/20pB_angry20.mp3,NULL,audio-keyboard-response,127,199609,0.0-7.0-40.0,NULL,NULL,NULL,592eb652b97ad000017449da,NULL
422,2744,NULL,NULL,survey-multi-choice,128,202355,0.0-7.0-41.0,"{"Q0":"Disgust"}",NULL,NULL,592eb652b97ad000017449da,Anger
423,NULL,jsPsych-master/Emotion_Stimuli/42pA_disgust11.mp3,NULL,audio-keyboard-response,129,204340,0.0-7.0-42.0,NULL,NULL,NULL,592eb652b97ad000017449da,NULL
424,NULL,jsPsych-master/Emotion_Stimuli/33pA_disgust2.mp3,NULL,audio-keyboard-response,130,206011,0.0-7.0-43.0,NULL,NULL,NULL,592eb652b97ad000017449da,NULL
425,4127,NULL,NULL,survey-multi-choice,131,210139,0.0-7.0-44.0,"{"Q0":"Surprise"}",NULL,NULL,592eb652b97ad000017449da,Disgust
426,NULL,jsPsych-master/Emotion_Stimuli/100pA_neutral12.mp3,NULL,audio-keyboard-response,132,211736,0.0-7.0-45.0,NULL,NULL,NULL,592eb652b97ad000017449da,NULL
427,NULL,jsPsych-master/Emotion_Stimuli/102pA_neutral14.mp3,NULL,audio-keyboard-response,133,213646,0.0-7.0-46.0,NULL,NULL,NULL,592eb652b97ad000017449da,NULL
428,2611,NULL,NULL,survey-multi-choice,134,216259,0.0-7.0-47.0,"{"Q0":"Neutral"}",NULL,NULL,592eb652b97ad000017449da,Neutral
429,NULL,jsPsych-master/Emotion_Stimuli/171pB_surprise25.mp3,NULL,audio-keyboard-response,135,217877,0.0-7.0-48.0,NULL,NULL,NULL,592eb652b97ad000017449da,NULL
430,NULL,jsPsych-master/Emotion_Stimuli/169pB_surprise23.mp3,NULL,audio-keyboard-response,136,219265,0.0-7.0-49.0,NULL,NULL,NULL,592eb652b97ad000017449da,NULL
431,1576,NULL,NULL,survey-multi-choice,137,220843,0.0-7.0-50.0,"{"Q0":"Surprise"}",NULL,NULL,592eb652b97ad000017449da,Surprise
432,NULL,jsPsych-master/Emotion_Stimuli/87pB_happy16.mp3,NULL,audio-keyboard-response,138,222405,0.0-7.0-51.0,NULL,NULL,NULL,592eb652b97ad000017449da,NULL
433,NULL,jsPsych-master/Emotion_Stimuli/86pB_happy15.mp3,NULL,audio-keyboard-response,139,223763,0.0-7.0-52.0,NULL,NULL,NULL,592eb652b97ad000017449da,NULL
434,1799,NULL,NULL,survey-multi-choice,140,225565,0.0-7.0-53.0,"{"Q0":"Disgust"}",NULL,NULL,592eb652b97ad000017449da,Happiness
435,NULL,jsPsych-master/Emotion_Stimuli/46pB_disgust15.mp3,NULL,audio-keyboard-response,141,226794,0.0-7.0-54.0,NULL,NULL,NULL,592eb652b97ad000017449da,NULL
436,NULL,jsPsych-master/Emotion_Stimuli/51pB_disgust20.mp3,NULL,audio-keyboard-response,142,228361,0.0-7.0-55.0,NULL,NULL,NULL,592eb652b97ad000017449da,NULL
437,4542,NULL,NULL,survey-multi-choice,143,232906,0.0-7.0-56.0,"{"Q0":"Neutral"}",NULL,NULL,592eb652b97ad000017449da,Disgust
438,NULL,jsPsych-master/Emotion_Stimuli/67pB_fear13.mp3,NULL,audio-keyboard-response,144,234132,0.0-7.0-57.0,NULL,NULL,NULL,592eb652b97ad000017449da,NULL
439,NULL,jsPsych-master/Emotion_Stimuli/69pB_fear15.mp3,NULL,audio-keyboard-response,145,235467,0.0-7.0-58.0,NULL,NULL,NULL,592eb652b97ad000017449da,NULL
440,2399,NULL,NULL,survey-multi-choice,146,237870,0.0-7.0-59.0,"{"Q0":"Fear"}",NULL,NULL,592eb652b97ad000017449da,Fear
441,9239,"This experiment is being conducted at Vassar College. It consists of a pitch discrimination task and an emotion identification task. The study takes approximately 8-10 minutes to complete.  Participation poses minimal risk, meaning the risk is no greater ",32,html-keyboard-response,0,9243,0.0-0.0,NULL,NULL,NULL,584ae4ded94df300014c6281,NULL
442,6116,"<p>Thank you for agreeing to participate in this experiment.</p><p>In this study you will be complete a pitch discrimination task then you will be presented with voice sound clips and asked to identify the emotion associated with the voice.</p><p>Before w",32,html-keyboard-response,1,15865,0.0-1.0,NULL,NULL,NULL,584ae4ded94df300014c6281,NULL
443,5545,NULL,NULL,survey-text,2,21916,0.0-2.0,"{"Q0":"0"}",NULL,NULL,584ae4ded94df300014c6281,NULL
444,NULL,jsPsych-master/K.mp3,NULL,audio-keyboard-response,3,29014,0.0-3.0-0.0,NULL,NULL,NULL,584ae4ded94df300014c6281,NULL
445,801,jsPsych-master/K.mp3,75,audio-keyboard-response,4,30314,0.0-3.1-0.1,NULL,NULL,NULL,584ae4ded94df300014c6281,NULL
446,14355,"<p>In this task you will hear two tones played in quick succession. If the second tone is higher than the first please press the up arrow key on your keyboard. If the second tone is lower than the first press the down arrow on your keyboard.</p><p>Press t",32,html-keyboard-response,5,45169,0.0-4.0,NULL,NULL,NULL,584ae4ded94df300014c6281,NULL
447,NULL,jsPsych-master/Pitch/1.mp3,NULL,audio-keyboard-response,6,46248,0.0-5.0-0.0,NULL,NULL,NULL,584ae4ded94df300014c6281,NULL
448,NULL,"<p style='font-size:48px;'>+</p>",NULL,html-keyboard-response,7,46449,0.0-5.0-1.0,NULL,NULL,NULL,584ae4ded94df300014c6281,NULL
449,NULL,jsPsych-master/Pitch/1b.mp3,NULL,audio-keyboard-response,8,47020,0.0-5.0-2.0,NULL,NULL,NULL,584ae4ded94df300014c6281,NULL
450,1507,"Press the up arrow if the second tone is higher and the down arrow if the second tone is lower.",40,html-keyboard-response,9,48528,0.0-5.0-3.0,NULL,1,,584ae4ded94df300014c6281,NULL
451,NULL,jsPsych-master/Pitch/1b.mp3,NULL,audio-keyboard-response,10,49603,0.0-5.1-0.1,NULL,NULL,NULL,584ae4ded94df300014c6281,NULL
452,NULL,"<p style='font-size:48px;'>+</p>",NULL,html-keyboard-response,11,49804,0.0-5.1-1.1,NULL,NULL,NULL,584ae4ded94df300014c6281,NULL
453,NULL,jsPsych-master/Pitch/1.mp3,NULL,audio-keyboard-response,12,50376,0.0-5.1-2.1,NULL,NULL,NULL,584ae4ded94df300014c6281,NULL
454,5503,"Press the up arrow if the second tone is higher and the down arrow if the second tone is lower.",40,html-keyboard-response,13,55880,0.0-5.1-3.1,NULL,1,1,584ae4ded94df300014c6281,NULL
455,NULL,jsPsych-master/Pitch/2b.mp3,NULL,audio-keyboard-response,14,56958,0.0-5.2-0.2,NULL,NULL,NULL,584ae4ded94df300014c6281,NULL
456,NULL,"<p style='font-size:48px;'>+</p>",NULL,html-keyboard-response,15,57160,0.0-5.2-1.2,NULL,NULL,NULL,584ae4ded94df300014c6281,NULL
457,NULL,jsPsych-master/Pitch/2.mp3,NULL,audio-keyboard-response,16,57731,0.0-5.2-2.2,NULL,NULL,NULL,584ae4ded94df300014c6281,NULL
458,1629,"Press the up arrow if the second tone is higher and the down arrow if the second tone is lower.",40,html-keyboard-response,17,59360,0.0-5.2-3.2,NULL,2,1,584ae4ded94df300014c6281,NULL
459,NULL,jsPsych-master/Pitch/3b.mp3,NULL,audio-keyboard-response,18,60436,0.0-5.3-0.3,NULL,NULL,NULL,584ae4ded94df300014c6281,NULL
460,NULL,"<p style='font-size:48px;'>+</p>",NULL,html-keyboard-response,19,60640,0.0-5.3-1.3,NULL,NULL,NULL,584ae4ded94df300014c6281,NULL
461,NULL,jsPsych-master/Pitch/3.mp3,NULL,audio-keyboard-response,20,61214,0.0-5.3-2.3,NULL,NULL,NULL,584ae4ded94df300014c6281,NULL
462,994,"Press the up arrow if the second tone is higher and the down arrow if the second tone is lower.",40,html-keyboard-response,21,62208,0.0-5.3-3.3,NULL,3,1,584ae4ded94df300014c6281,NULL
463,NULL,jsPsych-master/Pitch/4b.mp3,NULL,audio-keyboard-response,22,63285,0.0-5.4-0.4,NULL,NULL,NULL,584ae4ded94df300014c6281,NULL
464,NULL,"<p style='font-size:48px;'>+</p>",NULL,html-keyboard-response,23,63489,0.0-5.4-1.4,NULL,NULL,NULL,584ae4ded94df300014c6281,NULL
465,NULL,jsPsych-master/Pitch/4.mp3,NULL,audio-keyboard-response,24,64064,0.0-5.4-2.4,NULL,NULL,NULL,584ae4ded94df300014c6281,NULL
466,2104,"Press the up arrow if the second tone is higher and the down arrow if the second tone is lower.",40,html-keyboard-response,25,66168,0.0-5.4-3.4,NULL,4,1,584ae4ded94df300014c6281,NULL
467,NULL,jsPsych-master/Pitch/5b.mp3,NULL,audio-keyboard-response,26,67245,0.0-5.5-0.5,NULL,NULL,NULL,584ae4ded94df300014c6281,NULL
468,NULL,"<p style='font-size:48px;'>+</p>",NULL,html-keyboard-response,27,67447,0.0-5.5-1.5,NULL,NULL,NULL,584ae4ded94df300014c6281,NULL
469,NULL,jsPsych-master/Pitch/5.mp3,NULL,audio-keyboard-response,28,68017,0.0-5.5-2.5,NULL,NULL,NULL,584ae4ded94df300014c6281,NULL
470,1671,"Press the up arrow if the second tone is higher and the down arrow if the second tone is lower.",40,html-keyboard-response,29,69688,0.0-5.5-3.5,NULL,5,1,584ae4ded94df300014c6281,NULL
471,NULL,jsPsych-master/Pitch/6.mp3,NULL,audio-keyboard-response,30,70763,0.0-5.6-0.6,NULL,NULL,NULL,584ae4ded94df300014c6281,NULL
472,NULL,"<p style='font-size:48px;'>+</p>",NULL,html-keyboard-response,31,70967,0.0-5.6-1.6,NULL,NULL,NULL,584ae4ded94df300014c6281,NULL
473,NULL,jsPsych-master/Pitch/6b.mp3,NULL,audio-keyboard-response,32,71540,0.0-5.6-2.6,NULL,NULL,NULL,584ae4ded94df300014c6281,NULL
474,1563,"Press the up arrow if the second tone is higher and the down arrow if the second tone is lower.",38,html-keyboard-response,33,73105,0.0-5.6-3.6,NULL,6,1,584ae4ded94df300014c6281,NULL
475,NULL,jsPsych-master/Pitch/7.mp3,NULL,audio-keyboard-response,34,74181,0.0-5.7-0.7,NULL,NULL,NULL,584ae4ded94df300014c6281,NULL
476,NULL,"<p style='font-size:48px;'>+</p>",NULL,html-keyboard-response,35,74382,0.0-5.7-1.7,NULL,NULL,NULL,584ae4ded94df300014c6281,NULL
477,NULL,jsPsych-master/Pitch/7b.mp3,NULL,audio-keyboard-response,36,74953,0.0-5.7-2.7,NULL,NULL,NULL,584ae4ded94df300014c6281,NULL
478,1127,"Press the up arrow if the second tone is higher and the down arrow if the second tone is lower.",38,html-keyboard-response,37,76080,0.0-5.7-3.7,NULL,7,1,584ae4ded94df300014c6281,NULL
479,NULL,jsPsych-master/Pitch/8b.mp3,NULL,audio-keyboard-response,38,77153,0.0-5.8-0.8,NULL,NULL,NULL,584ae4ded94df300014c6281,NULL
480,NULL,"<p style='font-size:48px;'>+</p>",NULL,html-keyboard-response,39,77355,0.0-5.8-1.8,NULL,NULL,NULL,584ae4ded94df300014c6281,NULL
481,NULL,jsPsych-master/Pitch/8.mp3,NULL,audio-keyboard-response,40,77925,0.0-5.8-2.8,NULL,NULL,NULL,584ae4ded94df300014c6281,NULL
482,642,"Press the up arrow if the second tone is higher and the down arrow if the second tone is lower.",38,html-keyboard-response,41,78569,0.0-5.8-3.8,NULL,8,,584ae4ded94df300014c6281,NULL
483,NULL,jsPsych-master/Pitch/7b.mp3,NULL,audio-keyboard-response,42,79644,0.0-5.9-0.9,NULL,NULL,NULL,584ae4ded94df300014c6281,NULL
484,NULL,"<p style='font-size:48px;'>+</p>",NULL,html-keyboard-response,43,79844,0.0-5.9-1.9,NULL,NULL,NULL,584ae4ded94df300014c6281,NULL
485,NULL,jsPsych-master/Pitch/7.mp3,NULL,audio-keyboard-response,44,80415,0.0-5.9-2.9,NULL,NULL,NULL,584ae4ded94df300014c6281,NULL
486,815,"Press the up arrow if the second tone is higher and the down arrow if the second tone is lower.",38,html-keyboard-response,45,81231,0.0-5.9-3.9,NULL,7,,584ae4ded94df300014c6281,NULL
487,NULL,jsPsych-master/Pitch/6b.mp3,NULL,audio-keyboard-response,46,82308,0.0-5.10-0.10,NULL,NULL,NULL,584ae4ded94df300014c6281,NULL
488,NULL,"<p style='font-size:48px;'>+</p>",NULL,html-keyboard-response,47,82509,0.0-5.10-1.10,NULL,NULL,NULL,584ae4ded94df300014c6281,NULL
489,NULL,jsPsych-master/Pitch/6.mp3,NULL,audio-keyboard-response,48,83080,0.0-5.10-2.10,NULL,NULL,NULL,584ae4ded94df300014c6281,NULL
490,2510,"Press the up arrow if the second tone is higher and the down arrow if the second tone is lower.",38,html-keyboard-response,49,85591,0.0-5.10-3.10,NULL,6,,584ae4ded94df300014c6281,NULL
491,NULL,jsPsych-master/Pitch/5b.mp3,NULL,audio-keyboard-response,50,86661,0.0-5.11-0.11,NULL,NULL,NULL,584ae4ded94df300014c6281,NULL
492,NULL,"<p style='font-size:48px;'>+</p>",NULL,html-keyboard-response,51,86863,0.0-5.11-1.11,NULL,NULL,NULL,584ae4ded94df300014c6281,NULL
493,NULL,jsPsych-master/Pitch/5.mp3,NULL,audio-keyboard-response,52,87434,0.0-5.11-2.11,NULL,NULL,NULL,584ae4ded94df300014c6281,NULL
494,389,"Press the up arrow if the second tone is higher and the down arrow if the second tone is lower.",40,html-keyboard-response,53,87823,0.0-5.11-3.11,NULL,5,1,584ae4ded94df300014c6281,NULL
495,NULL,jsPsych-master/Pitch/6.mp3,NULL,audio-keyboard-response,54,88896,0.0-5.12-0.12,NULL,NULL,NULL,584ae4ded94df300014c6281,NULL
496,NULL,"<p style='font-size:48px;'>+</p>",NULL,html-keyboard-response,55,89098,0.0-5.12-1.12,NULL,NULL,NULL,584ae4ded94df300014c6281,NULL
497,NULL,jsPsych-master/Pitch/6b.mp3,NULL,audio-keyboard-response,56,89669,0.0-5.12-2.12,NULL,NULL,NULL,584ae4ded94df300014c6281,NULL
498,394,"Press the up arrow if the second tone is higher and the down arrow if the second tone is lower.",38,html-keyboard-response,57,90063,0.0-5.12-3.12,NULL,6,1,584ae4ded94df300014c6281,NULL
499,NULL,jsPsych-master/Pitch/7b.mp3,NULL,audio-keyboard-response,58,91137,0.0-5.13-0.13,NULL,NULL,NULL,584ae4ded94df300014c6281,NULL
500,NULL,"<p style='font-size:48px;'>+</p>",NULL,html-keyboard-response,59,91343,0.0-5.13-1.13,NULL,NULL,NULL,584ae4ded94df300014c6281,NULL
501,NULL,jsPsych-master/Pitch/7.mp3,NULL,audio-keyboard-response,60,91915,0.0-5.13-2.13,NULL,NULL,NULL,584ae4ded94df300014c6281,NULL
502,787,"Press the up arrow if the second tone is higher and the down arrow if the second tone is lower.",40,html-keyboard-response,61,92702,0.0-5.13-3.13,NULL,7,1,584ae4ded94df300014c6281,NULL
503,NULL,jsPsych-master/Pitch/8.mp3,NULL,audio-keyboard-response,62,93778,0.0-5.14-0.14,NULL,NULL,NULL,584ae4ded94df300014c6281,NULL
504,NULL,"<p style='font-size:48px;'>+</p>",NULL,html-keyboard-response,63,93981,0.0-5.14-1.14,NULL,NULL,NULL,584ae4ded94df300014c6281,NULL
505,NULL,jsPsych-master/Pitch/8b.mp3,NULL,audio-keyboard-response,64,94556,0.0-5.14-2.14,NULL,NULL,NULL,584ae4ded94df300014c6281,NULL
506,546,"Press the up arrow if the second tone is higher and the down arrow if the second tone is lower.",38,html-keyboard-response,65,95103,0.0-5.14-3.14,NULL,8,1,584ae4ded94df300014c6281,NULL
507,NULL,jsPsych-master/Pitch/9.mp3,NULL,audio-keyboard-response,66,96182,0.0-5.15-0.15,NULL,NULL,NULL,584ae4ded94df300014c6281,NULL
508,NULL,"<p style='font-size:48px;'>+</p>",NULL,html-keyboard-response,67,96383,0.0-5.15-1.15,NULL,NULL,NULL,584ae4ded94df300014c6281,NULL
509,NULL,jsPsych-master/Pitch/9b.mp3,NULL,audio-keyboard-response,68,96953,0.0-5.15-2.15,NULL,NULL,NULL,584ae4ded94df300014c6281,NULL
510,379,"Press the up arrow if the second tone is higher and the down arrow if the second tone is lower.",38,html-keyboard-response,69,97335,0.0-5.15-3.15,NULL,9,1,584ae4ded94df300014c6281,NULL
511,NULL,jsPsych-master/Pitch/10b.mp3,NULL,audio-keyboard-response,70,98411,0.0-5.16-0.16,NULL,NULL,NULL,584ae4ded94df300014c6281,NULL
512,NULL,"<p style='font-size:48px;'>+</p>",NULL,html-keyboard-response,71,98615,0.0-5.16-1.16,NULL,NULL,NULL,584ae4ded94df300014c6281,NULL
513,NULL,jsPsych-master/Pitch/10.mp3,NULL,audio-keyboard-response,72,99188,0.0-5.16-2.16,NULL,NULL,NULL,584ae4ded94df300014c6281,NULL
514,1810,"Press the up arrow if the second tone is higher and the down arrow if the second tone is lower.",38,html-keyboard-response,73,100999,0.0-5.16-3.16,NULL,10,,584ae4ded94df300014c6281,NULL
515,NULL,jsPsych-master/Pitch/9.mp3,NULL,audio-keyboard-response,74,102073,0.0-5.17-0.17,NULL,NULL,NULL,584ae4ded94df300014c6281,NULL
516,NULL,"<p style='font-size:48px;'>+</p>",NULL,html-keyboard-response,75,102276,0.0-5.17-1.17,NULL,NULL,NULL,584ae4ded94df300014c6281,NULL
517,NULL,jsPsych-master/Pitch/9b.mp3,NULL,audio-keyboard-response,76,102851,0.0-5.17-2.17,NULL,NULL,NULL,584ae4ded94df300014c6281,NULL
518,2251,"Press the up arrow if the second tone is higher and the down arrow if the second tone is lower.",38,html-keyboard-response,77,105103,0.0-5.17-3.17,NULL,9,1,584ae4ded94df300014c6281,NULL
519,NULL,jsPsych-master/Pitch/10b.mp3,NULL,audio-keyboard-response,78,106177,0.0-5.18-0.18,NULL,NULL,NULL,584ae4ded94df300014c6281,NULL
520,NULL,"<p style='font-size:48px;'>+</p>",NULL,html-keyboard-response,79,106380,0.0-5.18-1.18,NULL,NULL,NULL,584ae4ded94df300014c6281,NULL
521,NULL,jsPsych-master/Pitch/10.mp3,NULL,audio-keyboard-response,80,106955,0.0-5.18-2.18,NULL,NULL,NULL,584ae4ded94df300014c6281,NULL
522,483,"Press the up arrow if the second tone is higher and the down arrow if the second tone is lower.",38,html-keyboard-response,81,107439,0.0-5.18-3.18,NULL,10,,584ae4ded94df300014c6281,NULL
523,NULL,jsPsych-master/Pitch/9b.mp3,NULL,audio-keyboard-response,82,108517,0.0-5.19-0.19,NULL,NULL,NULL,584ae4ded94df300014c6281,NULL
524,NULL,"<p style='font-size:48px;'>+</p>",NULL,html-keyboard-response,83,108719,0.0-5.19-1.19,NULL,NULL,NULL,584ae4ded94df300014c6281,NULL
525,NULL,jsPsych-master/Pitch/9.mp3,NULL,audio-keyboard-response,84,109294,0.0-5.19-2.19,NULL,NULL,NULL,584ae4ded94df300014c6281,NULL
526,7574,"Press the up arrow if the second tone is higher and the down arrow if the second tone is lower.",38,html-keyboard-response,85,116870,0.0-5.19-3.19,NULL,9,,584ae4ded94df300014c6281,NULL
527,17408,"<p>In each trial of this task you will hear a person speaking meaningless phrases in a foreign language two times in a row.</p><p>After the person is done speaking, select what emotion best identifies the emotion expressed by the spearker from a list of s",32,html-keyboard-response,86,134782,0.0-6.0,NULL,NULL,NULL,584ae4ded94df300014c6281,NULL
528,NULL,jsPsych-master/Emotion_Stimuli/1pA_angry1.mp3,NULL,audio-keyboard-response,87,136641,0.0-7.0-0.0,NULL,NULL,NULL,584ae4ded94df300014c6281,NULL
529,NULL,jsPsych-master/Emotion_Stimuli/2pA_angry2.mp3,NULL,audio-keyboard-response,88,138052,0.0-7.0-1.0,NULL,NULL,NULL,584ae4ded94df300014c6281,NULL
530,20732,NULL,NULL,survey-multi-choice,89,158789,0.0-7.0-2.0,"{"Q0":"Anger"}",NULL,NULL,584ae4ded94df300014c6281,Anger
531,NULL,jsPsych-master/Emotion_Stimuli/90pA_neutral2.mp3,NULL,audio-keyboard-response,90,160331,0.0-7.0-3.0,NULL,NULL,NULL,584ae4ded94df300014c6281,NULL
532,NULL,jsPsych-master/Emotion_Stimuli/99pA_neutral11.mp3,NULL,audio-keyboard-response,91,162241,0.0-7.0-4.0,NULL,NULL,NULL,584ae4ded94df300014c6281,NULL
533,5176,NULL,NULL,survey-multi-choice,92,167419,0.0-7.0-5.0,"{"Q0":"Neutral"}",NULL,NULL,584ae4ded94df300014c6281,Neutral
534,NULL,jsPsych-master/Emotion_Stimuli/165pB_surprise19.mp3,NULL,audio-keyboard-response,93,168754,0.0-7.0-6.0,NULL,NULL,NULL,584ae4ded94df300014c6281,NULL
535,NULL,jsPsych-master/Emotion_Stimuli/178pB_surprise32.mp3,NULL,audio-keyboard-response,94,170112,0.0-7.0-7.0,NULL,NULL,NULL,584ae4ded94df300014c6281,NULL
536,5172,NULL,NULL,survey-multi-choice,95,175288,0.0-7.0-8.0,"{"Q0":"Surprise"}",NULL,NULL,584ae4ded94df300014c6281,Surprise
537,NULL,jsPsych-master/Emotion_Stimuli/40pA_disgust9.mp3,NULL,audio-keyboard-response,96,177037,0.0-7.0-9.0,NULL,NULL,NULL,584ae4ded94df300014c6281,NULL
538,NULL,jsPsych-master/Emotion_Stimuli/32pA_disgust1.mp3,NULL,audio-keyboard-response,97,178790,0.0-7.0-10.0,NULL,NULL,NULL,584ae4ded94df300014c6281,NULL
539,7803,NULL,NULL,survey-multi-choice,98,186597,0.0-7.0-11.0,"{"Q0":"Neutral"}",NULL,NULL,584ae4ded94df300014c6281,Disgust
540,NULL,jsPsych-master/Emotion_Stimuli/15pA_angry15.mp3,NULL,audio-keyboard-response,99,187984,0.0-7.0-12.0,NULL,NULL,NULL,584ae4ded94df300014c6281,NULL
541,NULL,jsPsych-master/Emotion_Stimuli/8pA_angry8.mp3,NULL,audio-keyboard-response,100,189529,0.0-7.0-13.0,NULL,NULL,NULL,584ae4ded94df300014c6281,NULL
542,6056,NULL,NULL,survey-multi-choice,101,195587,0.0-7.0-14.0,"{"Q0":"Anger"}",NULL,NULL,584ae4ded94df300014c6281,Anger
543,NULL,jsPsych-master/Emotion_Stimuli/77pA_happy6.mp3,NULL,audio-keyboard-response,102,197203,0.0-7.0-15.0,NULL,NULL,NULL,584ae4ded94df300014c6281,NULL
544,NULL,jsPsych-master/Emotion_Stimuli/72pA_happy1.mp3,NULL,audio-keyboard-response,103,198718,0.0-7.0-16.0,NULL,NULL,NULL,584ae4ded94df300014c6281,NULL
545,4669,NULL,NULL,survey-multi-choice,104,203390,0.0-7.0-17.0,"{"Q0":"Happiness"}",NULL,NULL,584ae4ded94df300014c6281,Happiness
546,NULL,jsPsych-master/Emotion_Stimuli/157pA_surprise11.mp3,NULL,audio-keyboard-response,105,205162,0.0-7.0-18.0,NULL,NULL,NULL,584ae4ded94df300014c6281,NULL
547,NULL,jsPsych-master/Emotion_Stimuli/149pA_surprise3.mp3,NULL,audio-keyboard-response,106,206758,0.0-7.0-19.0,NULL,NULL,NULL,584ae4ded94df300014c6281,NULL
548,9963,NULL,NULL,survey-multi-choice,107,216725,0.0-7.0-20.0,"{"Q0":"Happiness"}",NULL,NULL,584ae4ded94df300014c6281,Surprise
549,NULL,jsPsych-master/Emotion_Stimuli/133pB_sad15.mp3,NULL,audio-keyboard-response,108,218135,0.0-7.0-21.0,NULL,NULL,NULL,584ae4ded94df300014c6281,NULL
550,NULL,jsPsych-master/Emotion_Stimuli/145pB_sad27.mp3,NULL,audio-keyboard-response,109,219702,0.0-7.0-22.0,NULL,NULL,NULL,584ae4ded94df300014c6281,NULL
551,2537,NULL,NULL,survey-multi-choice,110,222242,0.0-7.0-23.0,"{"Q0":"Sadness"}",NULL,NULL,584ae4ded94df300014c6281,Sadness
552,NULL,jsPsych-master/Emotion_Stimuli/84pB_happy13.mp3,NULL,audio-keyboard-response,111,223731,0.0-7.0-24.0,NULL,NULL,NULL,584ae4ded94df300014c6281,NULL
553,NULL,jsPsych-master/Emotion_Stimuli/85pB_happy14.mp3,NULL,audio-keyboard-response,112,225014,0.0-7.0-25.0,NULL,NULL,NULL,584ae4ded94df300014c6281,NULL
554,6185,NULL,NULL,survey-multi-choice,113,231202,0.0-7.0-26.0,"{"Q0":"Disgust"}",NULL,NULL,584ae4ded94df300014c6281,Happiness
555,NULL,jsPsych-master/Emotion_Stimuli/68pB_fear14.mp3,NULL,audio-keyboard-response,114,232560,0.0-7.0-27.0,NULL,NULL,NULL,584ae4ded94df300014c6281,NULL
556,NULL,jsPsych-master/Emotion_Stimuli/63pB_fear9.mp3,NULL,audio-keyboard-response,115,233762,0.0-7.0-28.0,NULL,NULL,NULL,584ae4ded94df300014c6281,NULL
557,4694,NULL,NULL,survey-multi-choice,116,238460,0.0-7.0-29.0,"{"Q0":"Fear"}",NULL,NULL,584ae4ded94df300014c6281,Fear
558,NULL,jsPsych-master/Emotion_Stimuli/134pB_sad16.mp3,NULL,audio-keyboard-response,117,239868,0.0-7.0-30.0,NULL,NULL,NULL,584ae4ded94df300014c6281,NULL
559,NULL,jsPsych-master/Emotion_Stimuli/144pB_sad26.mp3,NULL,audio-keyboard-response,118,241517,0.0-7.0-31.0,NULL,NULL,NULL,584ae4ded94df300014c6281,NULL
560,3126,NULL,NULL,survey-multi-choice,119,244646,0.0-7.0-32.0,"{"Q0":"Sadness"}",NULL,NULL,584ae4ded94df300014c6281,Sadness
561,NULL,jsPsych-master/Emotion_Stimuli/122pA_sad4.mp3,NULL,audio-keyboard-response,120,246004,0.0-7.0-33.0,NULL,NULL,NULL,584ae4ded94df300014c6281,NULL
562,NULL,jsPsych-master/Emotion_Stimuli/120pA_sad2.mp3,NULL,audio-keyboard-response,121,247966,0.0-7.0-34.0,NULL,NULL,NULL,584ae4ded94df300014c6281,NULL
563,4662,NULL,NULL,survey-multi-choice,122,252631,0.0-7.0-35.0,"{"Q0":"Disgust"}",NULL,NULL,584ae4ded94df300014c6281,Sadness
564,NULL,jsPsych-master/Emotion_Stimuli/113pB_neutral25.mp3,NULL,audio-keyboard-response,123,254119,0.0-7.0-36.0,NULL,NULL,NULL,584ae4ded94df300014c6281,NULL
565,NULL,jsPsych-master/Emotion_Stimuli/105pB_neutral17.mp3,NULL,audio-keyboard-response,124,255559,0.0-7.0-37.0,NULL,NULL,NULL,584ae4ded94df300014c6281,NULL
566,7927,NULL,NULL,survey-multi-choice,125,263488,0.0-7.0-38.0,"{"Q0":"Neutral"}",NULL,NULL,584ae4ded94df300014c6281,Neutral
567,NULL,jsPsych-master/Emotion_Stimuli/25pB_angry25.mp3,NULL,audio-keyboard-response,126,264742,0.0-7.0-39.0,NULL,NULL,NULL,584ae4ded94df300014c6281,NULL
568,NULL,jsPsych-master/Emotion_Stimuli/20pB_angry20.mp3,NULL,audio-keyboard-response,127,265869,0.0-7.0-40.0,NULL,NULL,NULL,584ae4ded94df300014c6281,NULL
569,2736,NULL,NULL,survey-multi-choice,128,268607,0.0-7.0-41.0,"{"Q0":"Anger"}",NULL,NULL,584ae4ded94df300014c6281,Anger
570,NULL,jsPsych-master/Emotion_Stimuli/42pA_disgust11.mp3,NULL,audio-keyboard-response,129,270594,0.0-7.0-42.0,NULL,NULL,NULL,584ae4ded94df300014c6281,NULL
571,NULL,jsPsych-master/Emotion_Stimuli/33pA_disgust2.mp3,NULL,audio-keyboard-response,130,272265,0.0-7.0-43.0,NULL,NULL,NULL,584ae4ded94df300014c6281,NULL
572,2863,NULL,NULL,survey-multi-choice,131,275131,0.0-7.0-44.0,"{"Q0":"Surprise"}",NULL,NULL,584ae4ded94df300014c6281,Disgust
573,NULL,jsPsych-master/Emotion_Stimuli/100pA_neutral12.mp3,NULL,audio-keyboard-response,132,276723,0.0-7.0-45.0,NULL,NULL,NULL,584ae4ded94df300014c6281,NULL
574,NULL,jsPsych-master/Emotion_Stimuli/102pA_neutral14.mp3,NULL,audio-keyboard-response,133,278633,0.0-7.0-46.0,NULL,NULL,NULL,584ae4ded94df300014c6281,NULL
575,4704,NULL,NULL,survey-multi-choice,134,283340,0.0-7.0-47.0,"{"Q0":"Neutral"}",NULL,NULL,584ae4ded94df300014c6281,Neutral
576,NULL,jsPsych-master/Emotion_Stimuli/171pB_surprise25.mp3,NULL,audio-keyboard-response,135,284960,0.0-7.0-48.0,NULL,NULL,NULL,584ae4ded94df300014c6281,NULL
577,NULL,jsPsych-master/Emotion_Stimuli/169pB_surprise23.mp3,NULL,audio-keyboard-response,136,286347,0.0-7.0-49.0,NULL,NULL,NULL,584ae4ded94df300014c6281,NULL
578,3667,NULL,NULL,survey-multi-choice,137,290018,0.0-7.0-50.0,"{"Q0":"Surprise"}",NULL,NULL,584ae4ded94df300014c6281,Surprise
579,NULL,jsPsych-master/Emotion_Stimuli/87pB_happy16.mp3,NULL,audio-keyboard-response,138,291583,0.0-7.0-51.0,NULL,NULL,NULL,584ae4ded94df300014c6281,NULL
580,NULL,jsPsych-master/Emotion_Stimuli/86pB_happy15.mp3,NULL,audio-keyboard-response,139,292942,0.0-7.0-52.0,NULL,NULL,NULL,584ae4ded94df300014c6281,NULL
581,8982,NULL,NULL,survey-multi-choice,140,301927,0.0-7.0-53.0,"{"Q0":"Disgust"}",NULL,NULL,584ae4ded94df300014c6281,Happiness
582,NULL,jsPsych-master/Emotion_Stimuli/46pB_disgust15.mp3,NULL,audio-keyboard-response,141,303152,0.0-7.0-54.0,NULL,NULL,NULL,584ae4ded94df300014c6281,NULL
583,NULL,jsPsych-master/Emotion_Stimuli/51pB_disgust20.mp3,NULL,audio-keyboard-response,142,304720,0.0-7.0-55.0,NULL,NULL,NULL,584ae4ded94df300014c6281,NULL
584,5114,NULL,NULL,survey-multi-choice,143,309839,0.0-7.0-56.0,"{"Q0":"Disgust"}",NULL,NULL,584ae4ded94df300014c6281,Disgust
585,NULL,jsPsych-master/Emotion_Stimuli/67pB_fear13.mp3,NULL,audio-keyboard-response,144,311064,0.0-7.0-57.0,NULL,NULL,NULL,584ae4ded94df300014c6281,NULL
586,NULL,jsPsych-master/Emotion_Stimuli/69pB_fear15.mp3,NULL,audio-keyboard-response,145,312400,0.0-7.0-58.0,NULL,NULL,NULL,584ae4ded94df300014c6281,NULL
587,8390,NULL,NULL,survey-multi-choice,146,320793,0.0-7.0-59.0,"{"Q0":"Sadness"}",NULL,NULL,584ae4ded94df300014c6281,Fear
588,19252,"This experiment is being conducted at Vassar College. It consists of a pitch discrimination task and an emotion identification task. The study takes approximately 8-10 minutes to complete.  Participation poses minimal risk, meaning the risk is no greater ",32,html-keyboard-response,0,19260,0.0-0.0,NULL,NULL,NULL,5952b968243bab0001bd2bcd,NULL
589,5242,"<p>Thank you for agreeing to participate in this experiment.</p><p>In this study you will be complete a pitch discrimination task then you will be presented with voice sound clips and asked to identify the emotion associated with the voice.</p><p>Before w",32,html-keyboard-response,1,25010,0.0-1.0,NULL,NULL,NULL,5952b968243bab0001bd2bcd,NULL
590,16912,NULL,NULL,survey-text,2,42472,0.0-2.0,"{"Q0":"0"}",NULL,NULL,5952b968243bab0001bd2bcd,NULL
591,NULL,jsPsych-master/K.mp3,NULL,audio-keyboard-response,3,49634,0.0-3.0-0.0,NULL,NULL,NULL,5952b968243bab0001bd2bcd,NULL
592,NULL,jsPsych-master/K.mp3,NULL,audio-keyboard-response,4,56715,0.0-3.1-0.1,NULL,NULL,NULL,5952b968243bab0001bd2bcd,NULL
593,NULL,jsPsych-master/K.mp3,NULL,audio-keyboard-response,5,63793,0.0-3.2-0.2,NULL,NULL,NULL,5952b968243bab0001bd2bcd,NULL
594,3360,jsPsych-master/K.mp3,75,audio-keyboard-response,6,67662,0.0-3.3-0.3,NULL,NULL,NULL,5952b968243bab0001bd2bcd,NULL
595,8792,"<p>In this task you will hear two tones played in quick succession. If the second tone is higher than the first please press the up arrow key on your keyboard. If the second tone is lower than the first press the down arrow on your keyboard.</p><p>Press t",32,html-keyboard-response,7,76956,0.0-4.0,NULL,NULL,NULL,5952b968243bab0001bd2bcd,NULL
596,NULL,jsPsych-master/Pitch/1.mp3,NULL,audio-keyboard-response,8,78073,0.0-5.0-0.0,NULL,NULL,NULL,5952b968243bab0001bd2bcd,NULL
597,NULL,"<p style='font-size:48px;'>+</p>",NULL,html-keyboard-response,9,78277,0.0-5.0-1.0,NULL,NULL,NULL,5952b968243bab0001bd2bcd,NULL
598,NULL,jsPsych-master/Pitch/1b.mp3,NULL,audio-keyboard-response,10,78855,0.0-5.0-2.0,NULL,NULL,NULL,5952b968243bab0001bd2bcd,NULL
599,4527,"Press the up arrow if the second tone is higher and the down arrow if the second tone is lower.",38,html-keyboard-response,11,83386,0.0-5.0-3.0,NULL,1,1,5952b968243bab0001bd2bcd,NULL
600,NULL,jsPsych-master/Pitch/2.mp3,NULL,audio-keyboard-response,12,84473,0.0-5.1-0.1,NULL,NULL,NULL,5952b968243bab0001bd2bcd,NULL
601,NULL,"<p style='font-size:48px;'>+</p>",NULL,html-keyboard-response,13,84676,0.0-5.1-1.1,NULL,NULL,NULL,5952b968243bab0001bd2bcd,NULL
602,NULL,jsPsych-master/Pitch/2b.mp3,NULL,audio-keyboard-response,14,85255,0.0-5.1-2.1,NULL,NULL,NULL,5952b968243bab0001bd2bcd,NULL
603,3672,"Press the up arrow if the second tone is higher and the down arrow if the second tone is lower.",40,html-keyboard-response,15,88929,0.0-5.1-3.1,NULL,2,,5952b968243bab0001bd2bcd,NULL
604,NULL,jsPsych-master/Pitch/1.mp3,NULL,audio-keyboard-response,16,90044,0.0-5.2-0.2,NULL,NULL,NULL,5952b968243bab0001bd2bcd,NULL
605,NULL,"<p style='font-size:48px;'>+</p>",NULL,html-keyboard-response,17,90245,0.0-5.2-1.2,NULL,NULL,NULL,5952b968243bab0001bd2bcd,NULL
606,NULL,jsPsych-master/Pitch/1b.mp3,NULL,audio-keyboard-response,18,90823,0.0-5.2-2.2,NULL,NULL,NULL,5952b968243bab0001bd2bcd,NULL
607,676,"Press the up arrow if the second tone is higher and the down arrow if the second tone is lower.",38,html-keyboard-response,19,91500,0.0-5.2-3.2,NULL,1,1,5952b968243bab0001bd2bcd,NULL
608,NULL,jsPsych-master/Pitch/2.mp3,NULL,audio-keyboard-response,20,92583,0.0-5.3-0.3,NULL,NULL,NULL,5952b968243bab0001bd2bcd,NULL
609,NULL,"<p style='font-size:48px;'>+</p>",NULL,html-keyboard-response,21,92787,0.0-5.3-1.3,NULL,NULL,NULL,5952b968243bab0001bd2bcd,NULL
610,NULL,jsPsych-master/Pitch/2b.mp3,NULL,audio-keyboard-response,22,93363,0.0-5.3-2.3,NULL,NULL,NULL,5952b968243bab0001bd2bcd,NULL
611,1753,"Press the up arrow if the second tone is higher and the down arrow if the second tone is lower.",40,html-keyboard-response,23,95118,0.0-5.3-3.3,NULL,2,,5952b968243bab0001bd2bcd,NULL
612,NULL,jsPsych-master/Pitch/1b.mp3,NULL,audio-keyboard-response,24,96193,0.0-5.4-0.4,NULL,NULL,NULL,5952b968243bab0001bd2bcd,NULL
613,NULL,"<p style='font-size:48px;'>+</p>",NULL,html-keyboard-response,25,96396,0.0-5.4-1.4,NULL,NULL,NULL,5952b968243bab0001bd2bcd,NULL
614,NULL,jsPsych-master/Pitch/1.mp3,NULL,audio-keyboard-response,26,96973,0.0-5.4-2.4,NULL,NULL,NULL,5952b968243bab0001bd2bcd,NULL
615,544,"Press the up arrow if the second tone is higher and the down arrow if the second tone is lower.",40,html-keyboard-response,27,97519,0.0-5.4-3.4,NULL,1,1,5952b968243bab0001bd2bcd,NULL
616,NULL,jsPsych-master/Pitch/2.mp3,NULL,audio-keyboard-response,28,98593,0.0-5.5-0.5,NULL,NULL,NULL,5952b968243bab0001bd2bcd,NULL
617,NULL,"<p style='font-size:48px;'>+</p>",NULL,html-keyboard-response,29,98796,0.0-5.5-1.5,NULL,NULL,NULL,5952b968243bab0001bd2bcd,NULL
618,NULL,jsPsych-master/Pitch/2b.mp3,NULL,audio-keyboard-response,30,99373,0.0-5.5-2.5,NULL,NULL,NULL,5952b968243bab0001bd2bcd,NULL
619,1569,"Press the up arrow if the second tone is higher and the down arrow if the second tone is lower.",38,html-keyboard-response,31,100944,0.0-5.5-3.5,NULL,2,1,5952b968243bab0001bd2bcd,NULL
620,NULL,jsPsych-master/Pitch/3.mp3,NULL,audio-keyboard-response,32,102023,0.0-5.6-0.6,NULL,NULL,NULL,5952b968243bab0001bd2bcd,NULL
621,NULL,"<p style='font-size:48px;'>+</p>",NULL,html-keyboard-response,33,102225,0.0-5.6-1.6,NULL,NULL,NULL,5952b968243bab0001bd2bcd,NULL
622,NULL,jsPsych-master/Pitch/3b.mp3,NULL,audio-keyboard-response,34,102804,0.0-5.6-2.6,NULL,NULL,NULL,5952b968243bab0001bd2bcd,NULL
623,910,"Press the up arrow if the second tone is higher and the down arrow if the second tone is lower.",38,html-keyboard-response,35,103716,0.0-5.6-3.6,NULL,3,1,5952b968243bab0001bd2bcd,NULL
624,NULL,jsPsych-master/Pitch/4.mp3,NULL,audio-keyboard-response,36,104796,0.0-5.7-0.7,NULL,NULL,NULL,5952b968243bab0001bd2bcd,NULL
625,NULL,"<p style='font-size:48px;'>+</p>",NULL,html-keyboard-response,37,105000,0.0-5.7-1.7,NULL,NULL,NULL,5952b968243bab0001bd2bcd,NULL
626,NULL,jsPsych-master/Pitch/4b.mp3,NULL,audio-keyboard-response,38,105573,0.0-5.7-2.7,NULL,NULL,NULL,5952b968243bab0001bd2bcd,NULL
627,1115,"Press the up arrow if the second tone is higher and the down arrow if the second tone is lower.",40,html-keyboard-response,39,106689,0.0-5.7-3.7,NULL,4,,5952b968243bab0001bd2bcd,NULL
628,NULL,jsPsych-master/Pitch/3b.mp3,NULL,audio-keyboard-response,40,107763,0.0-5.8-0.8,NULL,NULL,NULL,5952b968243bab0001bd2bcd,NULL
629,NULL,"<p style='font-size:48px;'>+</p>",NULL,html-keyboard-response,41,107965,0.0-5.8-1.8,NULL,NULL,NULL,5952b968243bab0001bd2bcd,NULL
630,NULL,jsPsych-master/Pitch/3.mp3,NULL,audio-keyboard-response,42,108543,0.0-5.8-2.8,NULL,NULL,NULL,5952b968243bab0001bd2bcd,NULL
631,532,"Press the up arrow if the second tone is higher and the down arrow if the second tone is lower.",40,html-keyboard-response,43,109076,0.0-5.8-3.8,NULL,3,1,5952b968243bab0001bd2bcd,NULL
632,NULL,jsPsych-master/Pitch/4.mp3,NULL,audio-keyboard-response,44,110194,0.0-5.9-0.9,NULL,NULL,NULL,5952b968243bab0001bd2bcd,NULL
633,NULL,"<p style='font-size:48px;'>+</p>",NULL,html-keyboard-response,45,110396,0.0-5.9-1.9,NULL,NULL,NULL,5952b968243bab0001bd2bcd,NULL
634,NULL,jsPsych-master/Pitch/4b.mp3,NULL,audio-keyboard-response,46,110995,0.0-5.9-2.9,NULL,NULL,NULL,5952b968243bab0001bd2bcd,NULL
635,676,"Press the up arrow if the second tone is higher and the down arrow if the second tone is lower.",38,html-keyboard-response,47,111672,0.0-5.9-3.9,NULL,4,1,5952b968243bab0001bd2bcd,NULL
636,NULL,jsPsych-master/Pitch/5.mp3,NULL,audio-keyboard-response,48,112754,0.0-5.10-0.10,NULL,NULL,NULL,5952b968243bab0001bd2bcd,NULL
637,NULL,"<p style='font-size:48px;'>+</p>",NULL,html-keyboard-response,49,112960,0.0-5.10-1.10,NULL,NULL,NULL,5952b968243bab0001bd2bcd,NULL
638,NULL,jsPsych-master/Pitch/5b.mp3,NULL,audio-keyboard-response,50,113536,0.0-5.10-2.10,NULL,NULL,NULL,5952b968243bab0001bd2bcd,NULL
639,1696,"Press the up arrow if the second tone is higher and the down arrow if the second tone is lower.",40,html-keyboard-response,51,115236,0.0-5.10-3.10,NULL,5,,5952b968243bab0001bd2bcd,NULL
640,NULL,jsPsych-master/Pitch/4.mp3,NULL,audio-keyboard-response,52,116313,0.0-5.11-0.11,NULL,NULL,NULL,5952b968243bab0001bd2bcd,NULL
641,NULL,"<p style='font-size:48px;'>+</p>",NULL,html-keyboard-response,53,116515,0.0-5.11-1.11,NULL,NULL,NULL,5952b968243bab0001bd2bcd,NULL
642,NULL,jsPsych-master/Pitch/4b.mp3,NULL,audio-keyboard-response,54,117093,0.0-5.11-2.11,NULL,NULL,NULL,5952b968243bab0001bd2bcd,NULL
643,1389,"Press the up arrow if the second tone is higher and the down arrow if the second tone is lower.",38,html-keyboard-response,55,118485,0.0-5.11-3.11,NULL,4,1,5952b968243bab0001bd2bcd,NULL
644,NULL,jsPsych-master/Pitch/5b.mp3,NULL,audio-keyboard-response,56,119563,0.0-5.12-0.12,NULL,NULL,NULL,5952b968243bab0001bd2bcd,NULL
645,NULL,"<p style='font-size:48px;'>+</p>",NULL,html-keyboard-response,57,119766,0.0-5.12-1.12,NULL,NULL,NULL,5952b968243bab0001bd2bcd,NULL
646,NULL,jsPsych-master/Pitch/5.mp3,NULL,audio-keyboard-response,58,120344,0.0-5.12-2.12,NULL,NULL,NULL,5952b968243bab0001bd2bcd,NULL
647,451,"Press the up arrow if the second tone is higher and the down arrow if the second tone is lower.",40,html-keyboard-response,59,120795,0.0-5.12-3.12,NULL,5,1,5952b968243bab0001bd2bcd,NULL
648,NULL,jsPsych-master/Pitch/6b.mp3,NULL,audio-keyboard-response,60,121873,0.0-5.13-0.13,NULL,NULL,NULL,5952b968243bab0001bd2bcd,NULL
649,NULL,"<p style='font-size:48px;'>+</p>",NULL,html-keyboard-response,61,122076,0.0-5.13-1.13,NULL,NULL,NULL,5952b968243bab0001bd2bcd,NULL
650,NULL,jsPsych-master/Pitch/6.mp3,NULL,audio-keyboard-response,62,122654,0.0-5.13-2.13,NULL,NULL,NULL,5952b968243bab0001bd2bcd,NULL
651,564,"Press the up arrow if the second tone is higher and the down arrow if the second tone is lower.",40,html-keyboard-response,63,123222,0.0-5.13-3.13,NULL,6,1,5952b968243bab0001bd2bcd,NULL
652,NULL,jsPsych-master/Pitch/7.mp3,NULL,audio-keyboard-response,64,124303,0.0-5.14-0.14,NULL,NULL,NULL,5952b968243bab0001bd2bcd,NULL
653,NULL,"<p style='font-size:48px;'>+</p>",NULL,html-keyboard-response,65,124507,0.0-5.14-1.14,NULL,NULL,NULL,5952b968243bab0001bd2bcd,NULL
